#time,accel_x,accel_y,accel_z
11043.873206,-2220.617826,7698.141797,-77222.426198
11043.875796,1036.288319,7994.224174,-75537.016103
11043.878385,-15692.365970,-9474.636058,-75537.016103
11043.880974,5033.400406,-9326.594869,-74617.701505
11043.883563,21910.095883,11843.295072,-72012.976812
11043.886152,-21614.013506,9770.718434,-77375.645298
11043.888741,-24574.837274,-592.164754,-77528.864398
11043.891357,-2516.700203,1776.494261,-76915.987999
11043.893974,12731.542202,-5477.523971,-75230.577904
11043.896590,10510.924376,6661.853478,-74158.044206
11043.899206,-9326.594869,13619.789333,-74924.139704
11043.901822,-6957.935855,-2072.576638,-76149.892501
11043.904438,1628.453072,13175.665768,-76762.768900
11043.907055,-592.164754,740.205942,-77069.207099
11043.909671,-9770.718434,3849.070898,-74617.701505
11043.912287,10066.800811,444.123565,-75077.358804
11043.914903,16284.530724,5921.647536,-74924.139704
11043.917519,6809.894666,7105.977043,-76149.892501
11043.920135,592.164754,5329.482782,-76149.892501
11043.922752,-8142.265362,8586.388927,-75230.577904
11043.925368,-10362.883188,-6513.812290,-76609.549800
11043.927984,1036.288319,7698.141797,-75690.235202
11043.930600,-740.205942,10658.965565,-73085.510509
11043.933216,148.041188,-14952.160028,-74158.044206
11043.935833,3256.906145,2072.576638,-75996.673402
11043.938449,14952.160028,9622.677246,-77682.083497
11043.941065,-17912.983796,7994.224174,-80899.684589
11043.943681,-740.205942,8882.471304,-76456.330700
11043.946297,-1776.494261,10658.965565,-75537.016103
11043.948914,2368.659014,10955.047942,-75077.358804
11043.951530,14952.160028,11695.253884,-74311.263306
11043.954146,2664.741391,21910.095883,-75996.673402
11043.956762,-19245.354492,16432.571912,-78448.178995
11043.959378,296.082377,-148.041188,-74311.263306
11043.961995,12287.418637,16876.695478,-72932.291410
11043.964611,7550.100608,-7550.100608,-74464.482406
11043.967227,8882.471304,-5033.400406,-76149.892501
11043.969843,1332.370696,17468.860231,-76762.768900
11043.972459,-14508.036463,-3997.112087,-75230.577904
11043.975075,-1924.535449,5921.647536,-76149.892501
11043.977692,8882.471304,9918.759623,-74770.920605
11043.980308,-2664.741391,16876.695478,-75077.358804
11043.982924,-10362.883188,11251.130318,-76915.987999
11043.985540,-12139.377449,-2368.659014,-77528.864398
11043.988156,-2368.659014,-4589.276840,-76149.892501
11043.990773,5181.441594,4293.194464,-76609.549800
11043.993389,-12879.583391,3404.947333,-76149.892501
11043.996019,-9474.636058,1628.453072,-76303.111601
11043.998649,7402.059420,3108.864956,-75843.454302
11044.001279,1184.329507,19245.354492,-75230.577904
11044.003909,-22650.301825,2516.700203,-75843.454302
11044.006539,-22798.343014,-6365.771101,-76609.549800
11044.009169,1924.535449,-7254.018232,-75537.016103
11044.011799,11843.295072,9474.636058,-75383.797003
11044.014429,-22206.178260,20873.807564,-77835.302597
11044.017059,-27239.578666,-2812.782580,-77222.426198
11044.019689,6069.688724,-2072.576638,-75230.577904
11044.022319,15840.407159,14359.995275,-74004.825107
11044.024949,-8882.471304,-4885.359217,-76149.892501
11044.027579,-11251.130318,1036.288319,-77222.426198
11044.030209,8290.306550,11547.212695,-74004.825107
11044.032839,5181.441594,-7402.059420,-75077.358804
11044.035470,-444.123565,4885.359217,-76149.892501
11044.038100,6513.812290,-4737.318029,-73391.948708
11044.040730,-3997.112087,-6957.935855,-76303.111601
11044.043360,-1036.288319,-1480.411884,-77988.521696
11044.045990,8142.265362,14952.160028,-73391.948708
11044.048620,-148.041188,-9326.594869,-75077.358804
11044.051250,-740.205942,-2368.659014,-75843.454302
11044.053880,-5181.441594,14952.160028,-75383.797003
11044.056510,-4737.318029,888.247130,-77069.207099
11044.059140,-13619.789333,15988.448347,-76149.892501
11044.061770,-27535.661042,4737.318029,-76303.111601
11044.064400,-8142.265362,-5329.482782,-77222.426198
11044.067030,13323.706956,13619.789333,-74004.825107
11044.069660,-2368.659014,11399.171507,-75843.454302
11044.072290,-21021.848753,9474.636058,-76149.892501
11044.074920,-20873.807564,-5181.441594,-77528.864398
11044.077550,17024.736666,4145.153275,-75230.577904
11044.080180,15100.201217,7402.059420,-74770.920605
11044.082810,-9474.636058,1184.329507,-76762.768900
11044.085440,-15988.448347,3404.947333,-74924.139704
11044.088070,3701.029710,2812.782580,-75690.235202
11044.090700,-1628.453072,19985.560434,-76303.111601
11044.093330,-22502.260637,-888.247130,-78448.178995
11044.095961,7698.141797,1776.494261,-75230.577904
11044.098591,27831.743419,4441.235652,-71859.757712
11044.101107,22206.178260,4145.153275,-72472.634111
11044.103623,16432.571912,3404.947333,-75230.577904
11044.106140,5033.400406,3849.070898,-75690.235202
11044.108656,2368.659014,13323.706956,-77069.207099
11044.111172,-18357.107362,22058.137072,-77069.207099
11044.113689,-29016.072926,3552.988522,-76303.111601
11044.116205,-2516.700203,-888.247130,-75537.016103
11044.118721,20725.766376,14508.036463,-73391.948708
11044.121238,11103.089130,6513.812290,-75843.454302
11044.123754,-1184.329507,1776.494261,-75537.016103
11044.126271,1184.329507,-1628.453072,-74311.263306
11044.128787,-6365.771101,9918.759623,-76762.768900
11044.131303,-15248.242405,20133.601622,-75843.454302
11044.133820,10955.047942,19097.313304,-78448.178995
11044.136336,-16432.571912,7254.018232,-78754.617194
11044.138852,-22946.384202,12139.377449,-79980.369991
11044.141369,-19097.313304,11991.336260,-77835.302597
11044.143885,-7698.141797,8882.471304,-75383.797003
11044.146402,3849.070898,12731.542202,-74004.825107
11044.148918,5033.400406,15100.201217,-76303.111601
11044.151434,2812.782580,4145.153275,-77375.645298
11044.153951,6217.729913,10510.924376,-76762.768900
11044.156467,6217.729913,7402.059420,-73391.948708
11044.158983,-11843.295072,12583.501014,-76303.111601
11044.161500,-6809.894666,-2664.741391,-75843.454302
11044.164016,-2960.823768,-5329.482782,-76609.549800
11044.166532,13175.665768,13027.624579,-75077.358804
11044.169049,-5033.400406,4589.276840,-76303.111601
11044.171565,2516.700203,1628.453072,-74770.920605
11044.174082,12731.542202,9622.677246,-73698.386908
11044.176598,-2812.782580,15100.201217,-75537.016103
11044.179114,-15544.324782,13767.830521,-77375.645298
11044.181631,-14359.995275,-2812.782580,-77528.864398
11044.184147,6069.688724,-740.205942,-74924.139704
11044.186663,8734.430116,9030.512492,-73851.606007
11044.189180,-12583.501014,-3256.906145,-75690.235202
11044.191696,-4441.235652,1480.411884,-75843.454302
11044.194212,2960.823768,9326.594869,-76762.768900
11044.196729,9770.718434,20873.807564,-75230.577904
11044.199245,-21762.054695,-740.205942,-77375.645298
11044.201800,-19689.478057,-8586.388927,-75230.577904
11044.204354,11251.130318,2960.823768,-74617.701505
11044.206909,9622.677246,5921.647536,-75690.235202
11044.209463,-7994.224174,-5921.647536,-77222.426198
11044.212018,12139.377449,-6661.853478,-75383.797003
11044.214572,17616.901420,12583.501014,-74464.482406
11044.217126,-18505.148550,6217.729913,-74924.139704
11044.219681,-25759.166782,-13471.748144,-76456.330700
11044.222235,-8142.265362,3108.864956,-78601.398095
11044.224790,7550.100608,15692.365970,-76609.549800
11044.227344,-4589.276840,15544.324782,-77069.207099
11044.229899,-4145.153275,8882.471304,-74004.825107
11044.232453,-3701.029710,7698.141797,-75230.577904
11044.235008,6513.812290,-2072.576638,-75996.673402
11044.237562,444.123565,-4737.318029,-77528.864398
11044.240117,-8142.265362,5329.482782,-78448.178995
11044.242671,-11251.130318,-4589.276840,-75230.577904
11044.245226,-9178.553681,6217.729913,-74770.920605
11044.247780,-9326.594869,-3701.029710,-74924.139704
11044.250335,3256.906145,-2516.700203,-74311.263306
11044.252889,14804.118840,4293.194464,-74311.263306
11044.255443,-4737.318029,6217.729913,-76915.987999
11044.257998,-15248.242405,-148.041188,-76303.111601
11044.260552,740.205942,-16876.695478,-75843.454302
11044.263107,14063.912898,11103.089130,-72932.291410
11044.265661,-9178.553681,3997.112087,-76762.768900
11044.268216,-18801.230927,-3108.864956,-78141.740796
11044.270770,-1036.288319,-3997.112087,-75690.235202
11044.273325,26351.331535,-148.041188,-71706.538613
11044.275879,7254.018232,11695.253884,-73698.386908
11044.278434,-16728.654289,-6513.812290,-76609.549800
11044.280988,8438.347739,9622.677246,-76303.111601
11044.283543,4737.318029,16432.571912,-76303.111601
11044.286097,-15544.324782,11547.212695,-76609.549800
11044.288652,-15544.324782,4737.318029,-75383.797003
11044.291206,-16580.613101,3108.864956,-76149.892501
11044.293760,6217.729913,6661.853478,-75077.358804
11044.296315,8438.347739,8882.471304,-76149.892501
11044.298869,8882.471304,-444.123565,-78294.959896
11044.301424,6809.894666,22502.260637,-73851.606007
11044.304004,-24722.878463,13915.871710,-75690.235202
11044.306585,-19541.436869,-9770.718434,-76609.549800
11044.309165,15396.283594,9474.636058,-73851.606007
11044.311745,11991.336260,16284.530724,-76303.111601
11044.314325,-3108.864956,7846.182985,-75077.358804
11044.316906,6661.853478,-740.205942,-76303.111601
11044.319486,8142.265362,25907.207970,-73698.386908
11044.322066,-7698.141797,11695.253884,-75537.016103
11044.324647,888.247130,-592.164754,-77528.864398
11044.327227,1628.453072,-2812.782580,-75843.454302
11044.329807,1628.453072,-592.164754,-76609.549800
11044.332388,5625.565159,15100.201217,-73698.386908
11044.334968,-12879.583391,6217.729913,-75996.673402
11044.337548,-6809.894666,-6365.771101,-76456.330700
11044.340129,19393.395680,19541.436869,-76456.330700
11044.342709,5477.523971,18209.066173,-77835.302597
11044.345289,-9030.512492,-3404.947333,-73698.386908
11044.347870,7550.100608,-6513.812290,-74004.825107
11044.350450,29756.278868,13471.748144,-71859.757712
11044.353030,-10658.965565,8290.306550,-77222.426198
11044.355611,-15988.448347,1332.370696,-77528.864398
11044.358191,2220.617826,12139.377449,-75690.235202
11044.360771,3701.029710,18357.107362,-75077.358804
11044.363352,-17172.777854,5773.606348,-75383.797003
11044.365932,-5773.606348,-1036.288319,-74617.701505
11044.368512,19097.313304,-2812.782580,-75383.797003
11044.371093,19097.313304,9474.636058,-74924.139704
11044.373673,-10658.965565,-5625.565159,-76149.892501
11044.376253,-1628.453072,-12731.542202,-75843.454302
11044.378834,6069.688724,17024.736666,-73851.606007
11044.381414,-24722.878463,9030.512492,-77835.302597
11044.383994,-26943.496289,-9770.718434,-77222.426198
11044.386575,-18949.272115,-10510.924376,-77069.207099
11044.389155,19837.519246,296.082377,-74158.044206
11044.391735,2664.741391,17320.819043,-74617.701505
11044.394316,-14211.954086,-7698.141797,-76609.549800
11044.396896,1924.535449,1036.288319,-74311.263306
11044.399476,888.247130,14211.954086,-75383.797003
11044.402057,-14211.954086,-5477.523971,-77528.864398
11044.404637,592.164754,-4589.276840,-74770.920605
11044.407137,13323.706956,9030.512492,-72472.634111
11044.409641,-4441.235652,7846.182985,-77375.645298
11044.412146,2516.700203,25907.207970,-74464.482406
11044.414650,-5625.565159,-444.123565,-74158.044206
11044.417154,-7550.100608,-10807.006753,-75230.577904
11044.419658,-12583.501014,-13175.665768,-75996.673402
11044.422162,6365.771101,-4145.153275,-75996.673402
11044.424666,9326.594869,18949.272115,-75077.358804
11044.427171,-11991.336260,2072.576638,-76456.330700
11044.429675,-9474.636058,-4737.318029,-75996.673402
11044.432179,-11399.171507,16580.613101,-76456.330700
11044.434683,-26055.249158,6661.853478,-76762.768900
11044.437187,-9030.512492,-444.123565,-75383.797003
11044.439691,5033.400406,8586.388927,-74158.044206
11044.442195,592.164754,-1036.288319,-76609.549800
11044.444700,7105.977043,-2516.700203,-77222.426198
11044.447204,-6217.729913,14359.995275,-73851.606007
11044.449708,592.164754,5329.482782,-74311.263306
11044.452212,-15396.283594,-2664.741391,-76609.549800
11044.454716,-6513.812290,-4737.318029,-75996.673402
11044.457220,18061.024985,2072.576638,-73698.386908
11044.459725,7105.977043,8882.471304,-73698.386908
11044.462229,-4293.194464,-6661.853478,-75996.673402
11044.464733,12731.542202,11991.336260,-75537.016103
11044.467237,-5625.565159,17024.736666,-76762.768900
11044.469741,-24130.713709,8882.471304,-77222.426198
11044.472245,-12139.377449,4589.276840,-75537.016103
11044.474749,18949.272115,3404.947333,-73085.510509
11044.477254,26943.496289,4589.276840,-74464.482406
11044.479758,7846.182985,4885.359217,-76456.330700
11044.482262,8882.471304,11103.089130,-77069.207099
11044.484766,-8438.347739,18949.272115,-74924.139704
11044.487270,-23686.590144,5921.647536,-75996.673402
11044.489774,-6069.688724,3552.988522,-76915.987999
11044.492279,7846.182985,13471.748144,-75077.358804
11044.494783,3997.112087,7846.182985,-75383.797003
11044.497287,9474.636058,-6661.853478,-75077.358804
11044.499791,12583.501014,-3404.947333,-73238.729609
11044.502295,3849.070898,-5329.482782,-74158.044206
11044.504799,11399.171507,1924.535449,-73545.167808
11044.507340,11547.212695,5921.647536,-77375.645298
11044.509881,9474.636058,1480.411884,-76762.768900
11044.512421,5773.606348,8586.388927,-73545.167808
11044.514962,1628.453072,1184.329507,-73391.948708
11044.517503,-888.247130,14952.160028,-74617.701505
11044.520043,1628.453072,13323.706956,-76456.330700
11044.522584,-4589.276840,13619.789333,-78907.836294
11044.525124,-592.164754,13767.830521,-77375.645298
11044.527665,-13175.665768,1184.329507,-77528.864398
11044.530206,-2812.782580,2516.700203,-74004.825107
11044.532746,11991.336260,8142.265362,-73238.729609
11044.535287,3701.029710,7550.100608,-75996.673402
11044.537828,1480.411884,15840.407159,-77528.864398
11044.540368,-13915.871710,13915.871710,-77988.521696
11044.542909,-19541.436869,6217.729913,-74924.139704
11044.545450,-16136.489536,6957.935855,-74617.701505
11044.547990,-6661.853478,-2220.617826,-76149.892501
11044.550531,11991.336260,0.000000,-75843.454302
11044.553071,6957.935855,4737.318029,-75230.577904
11044.555612,-2368.659014,-9326.594869,-75996.673402
11044.558153,5181.441594,6661.853478,-73698.386908
11044.560693,-9622.677246,15100.201217,-75537.016103
11044.563234,-32569.061448,2368.659014,-76609.549800
11044.565775,-10362.883188,-10510.924376,-75843.454302
11044.568315,22798.343014,3997.112087,-74924.139704
11044.570856,1184.329507,10510.924376,-75383.797003
11044.573397,-9918.759623,-10955.047942,-75843.454302
11044.575937,-9622.677246,-2960.823768,-75537.016103
11044.578478,3256.906145,-6513.812290,-74770.920605
11044.581018,19245.354492,-4885.359217,-76609.549800
11044.583559,16432.571912,15692.365970,-74770.920605
11044.586100,-9622.677246,6069.688724,-72319.415011
11044.588666,-19689.478057,-22650.301825,-78601.398095
11044.591232,11547.212695,-14063.912898,-72932.291410
11044.593799,12879.583391,-1776.494261,-71400.100414
11044.596365,7994.224174,-9622.677246,-76303.111601
11044.598931,10362.883188,7254.018232,-73545.167808
11044.601498,3849.070898,-8142.265362,-76609.549800
11044.604064,10214.842000,-9918.759623,-73391.948708
11044.606630,-6365.771101,-12139.377449,-75996.673402
11044.609196,-9178.553681,-4145.153275,-74464.482406
11044.611763,8882.471304,9918.759623,-75843.454302
11044.614329,-5773.606348,15692.365970,-76762.768900
11044.616895,-24130.713709,-1924.535449,-77835.302597
11044.619462,-11695.253884,3701.029710,-76303.111601
11044.622028,2812.782580,-10214.842000,-73391.948708
11044.624594,15396.283594,1332.370696,-73698.386908
11044.627160,6217.729913,4145.153275,-75230.577904
11044.629727,-7254.018232,1776.494261,-76303.111601
11044.632293,-14508.036463,444.123565,-76609.549800
11044.634859,4145.153275,-296.082377,-74464.482406
11044.637426,-888.247130,12139.377449,-75077.358804
11044.639992,-5329.482782,2664.741391,-75230.577904
11044.642558,10658.965565,2368.659014,-76609.549800
11044.645125,20429.683999,14804.118840,-75690.235202
11044.647691,6069.688724,12879.583391,-75843.454302
11044.650257,-12287.418637,12139.377449,-74464.482406
11044.652823,-17912.983796,3256.906145,-75230.577904
11044.655390,1480.411884,5773.606348,-76149.892501
11044.657956,6957.935855,7846.182985,-77069.207099
11044.660522,7698.141797,12583.501014,-76762.768900
11044.663089,-10658.965565,13471.748144,-75996.673402
11044.665655,-18061.024985,3256.906145,-75690.235202
11044.668221,8734.430116,2072.576638,-74770.920605
11044.670787,12435.459826,7254.018232,-75996.673402
11044.673354,8142.265362,740.205942,-78448.178995
11044.675920,9474.636058,-4145.153275,-73391.948708
11044.678486,12435.459826,-8290.306550,-74158.044206
11044.681053,13027.624579,10214.842000,-72012.976812
11044.683619,1184.329507,7698.141797,-75383.797003
11044.686185,-296.082377,-592.164754,-79214.274493
11044.688752,-296.082377,4145.153275,-76762.768900
11044.691260,7846.182985,11399.171507,-72779.072310
11044.693768,9326.594869,11399.171507,-71400.100414
11044.696276,-1628.453072,9178.553681,-74158.044206
11044.698784,3701.029710,-1036.288319,-77222.426198
11044.701292,16284.530724,-4589.276840,-76149.892501
11044.703800,29608.237680,3701.029710,-74158.044206
11044.706308,3404.947333,10214.842000,-72932.291410
11044.708816,-11547.212695,-1184.329507,-75077.358804
11044.711325,-8290.306550,11695.253884,-74004.825107
11044.713833,-592.164754,1924.535449,-77988.521696
11044.716341,13915.871710,10807.006753,-75230.577904
11044.718849,5773.606348,12731.542202,-74924.139704
11044.721357,-1036.288319,11399.171507,-75383.797003
11044.723865,-15248.242405,3256.906145,-75230.577904
11044.726373,-13175.665768,-6661.853478,-76762.768900
11044.728881,-4737.318029,10362.883188,-75996.673402
11044.731389,-21465.972318,13027.624579,-77528.864398
11044.733898,-30200.402434,2368.659014,-77528.864398
11044.736406,3256.906145,-5033.400406,-74924.139704
11044.738914,21910.095883,19689.478057,-73391.948708
11044.741422,-13619.789333,3404.947333,-76609.549800
11044.743930,-19393.395680,-9474.636058,-76915.987999
11044.746438,5921.647536,4737.318029,-76149.892501
11044.748946,-1184.329507,10214.842000,-75843.454302
11044.751454,-15100.201217,-1776.494261,-75996.673402
11044.753962,-148.041188,-5625.565159,-75383.797003
11044.756471,22946.384202,14359.995275,-73545.167808
11044.758979,-9918.759623,0.000000,-78448.178995
11044.761487,-27387.619854,-13027.624579,-77988.521696
11044.763995,-12139.377449,-10214.842000,-75383.797003
11044.766503,3849.070898,-3997.112087,-74158.044206
11044.769011,17172.777854,8734.430116,-73851.606007
11044.771519,-1776.494261,24278.754898,-75996.673402
11044.774027,-31384.731941,2220.617826,-82431.875585
11044.776536,-12583.501014,-23094.425390,-77222.426198
11044.779044,23094.425390,-9030.512492,-72319.415011
11044.781552,9030.512492,15396.283594,-73851.606007
11044.784060,-36566.173535,10066.800811,-76149.892501
11044.786568,-22798.343014,-8882.471304,-77069.207099
11044.789076,24278.754898,-2072.576638,-74004.825107
11044.791616,1628.453072,21614.013506,-75537.016103
11044.794157,-12879.583391,11103.089130,-76303.111601
11044.796697,-36418.132346,888.247130,-77069.207099
11044.799237,4441.235652,-2368.659014,-75383.797003
11044.801777,31828.855506,-148.041188,-74311.263306
11044.804317,1924.535449,11399.171507,-75690.235202
11044.806858,-32717.102636,5625.565159,-76456.330700
11044.809398,-2960.823768,10955.047942,-75843.454302
11044.811938,7846.182985,18209.066173,-74311.263306
11044.814478,-19985.560434,-8290.306550,-78141.740796
11044.817019,1036.288319,2220.617826,-75996.673402
11044.819559,34937.720462,7846.182985,-72779.072310
11044.822099,23538.548956,8734.430116,-74158.044206
11044.824639,-9770.718434,6809.894666,-75230.577904
11044.827179,-7105.977043,1332.370696,-76915.987999
11044.829720,-9770.718434,8290.306550,-76303.111601
11044.832260,2812.782580,7698.141797,-77069.207099
11044.834800,-3552.988522,22058.137072,-75843.454302
11044.837340,-21465.972318,9030.512492,-76149.892501
11044.839881,-10362.883188,-3256.906145,-75996.673402
11044.842421,10214.842000,12583.501014,-77222.426198
11044.844961,20281.642811,3997.112087,-73545.167808
11044.847501,12583.501014,-14359.995275,-75537.016103
11044.850042,15988.448347,33753.390955,-72472.634111
11044.852582,-8882.471304,29460.196492,-74311.263306
11044.855122,-9770.718434,-27091.537477,-74924.139704
11044.857662,-1184.329507,-23834.631332,-76609.549800
11044.860202,19393.395680,20725.766376,-75383.797003
11044.862743,-2072.576638,33901.432144,-73545.167808
11044.865283,-23686.590144,4293.194464,-76303.111601
11044.867823,10066.800811,13767.830521,-75537.016103
11044.870363,14508.036463,7105.977043,-76149.892501
11044.872904,-19541.436869,5329.482782,-79367.493593
11044.875444,1924.535449,-740.205942,-73545.167808
11044.877984,21021.848753,2368.659014,-73085.510509
11044.880524,296.082377,29904.320057,-75996.673402
11044.883065,-33309.267390,2812.782580,-79214.274493
11044.885605,-9178.553681,2960.823768,-76762.768900
11044.888145,23686.590144,10362.883188,-73238.729609
11044.890685,19985.560434,3997.112087,-73545.167808
11044.893181,7550.100608,-3256.906145,-74924.139704
11044.895677,592.164754,-13767.830521,-75230.577904
11044.898172,16136.489536,-148.041188,-74924.139704
11044.900668,-444.123565,15248.242405,-76303.111601
11044.903164,-35825.967593,5921.647536,-78141.740796
11044.905659,-24426.796086,-10214.842000,-76915.987999
11044.908155,17912.983796,9178.553681,-73085.510509
11044.910651,3997.112087,9326.594869,-75537.016103
11044.913147,-15692.365970,-6661.853478,-76609.549800
11044.915642,3849.070898,-7105.977043,-75077.358804
11044.918138,10362.883188,12435.459826,-74617.701505
11044.920634,-5181.441594,14656.077652,-76149.892501
11044.923129,-22354.219448,1184.329507,-76149.892501
11044.925625,-20281.642811,18949.272115,-75230.577904
11044.928121,-18653.189738,15692.365970,-77528.864398
11044.930617,-9326.594869,13175.665768,-78141.740796
11044.933112,-16432.571912,4293.194464,-79367.493593
11044.935608,-14211.954086,-9474.636058,-74464.482406
11044.938104,-13175.665768,-1480.411884,-75230.577904
11044.940599,3256.906145,-9622.677246,-76456.330700
11044.943095,23242.466579,3108.864956,-71859.757712
11044.945591,10066.800811,2664.741391,-75383.797003
11044.948087,-10807.006753,-5329.482782,-75230.577904
11044.950582,-13323.706956,-148.041188,-74924.139704
11044.953078,1036.288319,8290.306550,-73391.948708
11044.955574,-3256.906145,11103.089130,-74004.825107
11044.958069,-9178.553681,-17616.901420,-77528.864398
11044.960565,9918.759623,888.247130,-75537.016103
11044.963061,7550.100608,7550.100608,-74770.920605
11044.965556,-12435.459826,-7994.224174,-75077.358804
11044.968052,-1184.329507,-10510.924376,-73085.510509
11044.970548,27091.537477,6365.771101,-74617.701505
11044.973044,3997.112087,14656.077652,-75996.673402
11044.975539,-13619.789333,-10066.800811,-77222.426198
11044.978035,6661.853478,12435.459826,-75690.235202
11044.980531,-10658.965565,19689.478057,-75690.235202
11044.983026,-15100.201217,21021.848753,-76456.330700
11044.985522,-29460.196492,4589.276840,-77375.645298
11044.988018,444.123565,444.123565,-76303.111601
11044.990514,28719.990550,7105.977043,-75077.358804
11044.993044,14804.118840,8290.306550,-75383.797003
11044.995574,-2220.617826,5329.482782,-75537.016103
11044.998104,4145.153275,1480.411884,-75383.797003
11045.000634,-1332.370696,21614.013506,-75077.358804
11045.003164,-25018.960840,11103.089130,-78141.740796
11045.005694,-14804.118840,-7994.224174,-77988.521696
11045.008224,20873.807564,17912.983796,-73238.729609
11045.010754,4441.235652,10955.047942,-75537.016103
11045.013284,-20429.683999,6513.812290,-77222.426198
11045.015814,-22798.343014,-444.123565,-78601.398095
11045.018344,-5033.400406,26499.372724,-77528.864398
11045.020874,-6513.812290,23094.425390,-76762.768900
11045.023404,-8586.388927,5181.441594,-77988.521696
11045.025935,6661.853478,14952.160028,-73698.386908
11045.028465,1776.494261,10658.965565,-71859.757712
11045.030995,15396.283594,-4885.359217,-75383.797003
11045.033525,23538.548956,6069.688724,-75996.673402
11045.036055,-1332.370696,14508.036463,-78141.740796
11045.038585,-12583.501014,-2072.576638,-75537.016103
11045.041115,-8290.306550,-592.164754,-74311.263306
11045.043645,10807.006753,20281.642811,-75383.797003
11045.046175,14656.077652,17912.983796,-75383.797003
11045.048705,-11251.130318,15692.365970,-76915.987999
11045.051235,-17468.860231,4589.276840,-76456.330700
11045.053765,-888.247130,-5033.400406,-75383.797003
11045.056295,17172.777854,-148.041188,-73545.167808
11045.058825,5033.400406,888.247130,-74311.263306
11045.061355,-6365.771101,-7846.182985,-76149.892501
11045.063886,6365.771101,4885.359217,-76303.111601
11045.066416,-4589.276840,16136.489536,-76915.987999
11045.068946,-30496.484810,-5329.482782,-76762.768900
11045.071476,-2220.617826,-6217.729913,-75230.577904
11045.074006,15692.365970,9622.677246,-74464.482406
11045.076536,7846.182985,10066.800811,-74770.920605
11045.079066,-1776.494261,-9474.636058,-75996.673402
11045.081596,3701.029710,-1628.453072,-76303.111601
11045.084126,2812.782580,14211.954086,-75996.673402
11045.086656,-12139.377449,8586.388927,-74311.263306
11045.089186,-16580.613101,-5033.400406,-77222.426198
11045.091716,-6365.771101,11399.171507,-75077.358804
11045.094272,-5477.523971,6957.935855,-78601.398095
11045.096828,-4589.276840,-888.247130,-77682.083497
11045.099384,-11399.171507,7254.018232,-73085.510509
11045.101940,-1924.535449,-7698.141797,-73698.386908
11045.104496,11547.212695,4145.153275,-74311.263306
11045.107052,-1924.535449,3701.029710,-79061.055394
11045.109608,-6661.853478,8734.430116,-76149.892501
11045.112164,-17764.942608,-1036.288319,-76149.892501
11045.114720,-6809.894666,6217.729913,-72932.291410
11045.117276,-5033.400406,11695.253884,-74770.920605
11045.119832,-9918.759623,-11547.212695,-77222.426198
11045.122388,15692.365970,-4589.276840,-74924.139704
11045.124944,15544.324782,7105.977043,-75537.016103
11045.127500,-18949.272115,6217.729913,-76609.549800
11045.130056,-18653.189738,-13175.665768,-74617.701505
11045.132612,21465.972318,5033.400406,-72932.291410
11045.135168,9918.759623,17912.983796,-75230.577904
11045.137724,-7402.059420,1184.329507,-77528.864398
11045.140280,2072.576638,-1036.288319,-76456.330700
11045.142836,22206.178260,14804.118840,-73085.510509
11045.145392,-1776.494261,25463.084405,-74004.825107
11045.147948,-33309.267390,9178.553681,-76456.330700
11045.150504,-14063.912898,-2072.576638,-76609.549800
11045.153060,23982.672521,6217.729913,-76149.892501
11045.155616,16136.489536,10807.006753,-75996.673402
11045.158172,-1332.370696,5181.441594,-75077.358804
11045.160728,5329.482782,10807.006753,-75077.358804
11045.163284,-9918.759623,24722.878463,-74464.482406
11045.165840,-29756.278868,4145.153275,-77988.521696
11045.168396,-740.205942,296.082377,-75230.577904
11045.170952,8142.265362,9030.512492,-75996.673402
11045.173508,5773.606348,29164.114115,-76609.549800
11045.176064,-21614.013506,23686.590144,-77222.426198
11045.178620,-38638.750172,6809.894666,-77375.645298
11045.181176,-15248.242405,-7698.141797,-79673.931792
11045.183732,6365.771101,17912.983796,-77988.521696
11045.186288,-5033.400406,27683.702231,-77988.521696
11045.188844,-20281.642811,7105.977043,-75383.797003
11045.191400,5921.647536,-3256.906145,-72932.291410
11045.193956,35974.008781,11251.130318,-72779.072310
11045.196530,6217.729913,14211.954086,-77069.207099
11045.199105,-18061.024985,1480.411884,-77375.645298
11045.201679,-7550.100608,-7254.018232,-74924.139704
11045.204253,23094.425390,10066.800811,-73851.606007
11045.206828,10066.800811,17912.983796,-75996.673402
11045.209402,-25611.125593,9770.718434,-76149.892501
11045.211977,-17912.983796,5477.523971,-75537.016103
11045.214551,18061.024985,-4145.153275,-74617.701505
11045.217126,15988.448347,2960.823768,-75383.797003
11045.219700,-7994.224174,-6069.688724,-74924.139704
11045.222274,1628.453072,-13175.665768,-74617.701505
11045.224849,12435.459826,12583.501014,-74464.482406
11045.227423,-15544.324782,13619.789333,-78141.740796
11045.229998,-30052.361245,-7402.059420,-77528.864398
11045.232572,8142.265362,4293.194464,-74158.044206
11045.235147,14211.954086,5033.400406,-73851.606007
11045.237721,-3701.029710,6365.771101,-75996.673402
11045.240296,-2072.576638,-11103.089130,-75383.797003
11045.242870,9918.759623,5477.523971,-74924.139704
11045.245444,-1332.370696,10214.842000,-77069.207099
11045.248019,-14211.954086,5477.523971,-78141.740796
11045.250593,-2960.823768,740.205942,-73238.729609
11045.253168,14804.118840,-17912.983796,-74311.263306
11045.255742,10214.842000,13027.624579,-76456.330700
11045.258317,9622.677246,31384.731941,-74924.139704
11045.260891,-4589.276840,-3701.029710,-74924.139704
11045.263465,-26647.413912,-12583.501014,-78294.959896
11045.266040,2960.823768,-26499.372724,-74158.044206
11045.268614,1480.411884,13323.706956,-75996.673402
11045.271189,-6513.812290,592.164754,-75996.673402
11045.273763,-18061.024985,-5625.565159,-76915.987999
11045.276338,-9474.636058,12287.418637,-74158.044206
11045.278912,1628.453072,-9622.677246,-75996.673402
11045.281486,8734.430116,8734.430116,-75690.235202
11045.284061,-6957.935855,3997.112087,-76609.549800
11045.286635,-17172.777854,-6957.935855,-76762.768900
11045.289210,6365.771101,-5329.482782,-75077.358804
11045.291784,19837.519246,7994.224174,-74004.825107
11045.294359,-11103.089130,8882.471304,-74004.825107
11045.296933,-7550.100608,-4441.235652,-77375.645298
11045.299521,15692.365970,11399.171507,-76303.111601
11045.302109,8882.471304,18801.230927,-75230.577904
11045.304698,-17468.860231,6513.812290,-75383.797003
11045.307286,-16876.695478,-4441.235652,-75383.797003
11045.309874,21021.848753,4441.235652,-72932.291410
11045.312462,28423.908173,8290.306550,-75077.358804
11045.315051,2516.700203,7402.059420,-77375.645298
11045.317639,-6069.688724,3701.029710,-75843.454302
11045.320227,0.000000,9178.553681,-75383.797003
11045.322815,-2516.700203,-1184.329507,-73698.386908
11045.325403,13027.624579,1628.453072,-73238.729609
11045.327992,10510.924376,19245.354492,-73391.948708
11045.330580,20281.642811,21910.095883,-75996.673402
11045.333168,-1776.494261,22798.343014,-77069.207099
11045.335756,-5329.482782,4737.318029,-77528.864398
11045.338344,-8586.388927,25167.002028,-75690.235202
11045.340933,-5181.441594,24130.713709,-72472.634111
11045.343521,-11843.295072,-2072.576638,-77988.521696
11045.346109,-3552.988522,8586.388927,-76609.549800
11045.348697,14656.077652,2812.782580,-75230.577904
11045.351285,34049.473332,3997.112087,-71400.100414
11045.353874,13915.871710,7994.224174,-72319.415011
11045.356462,-14656.077652,888.247130,-78754.617194
11045.359050,-4885.359217,2960.823768,-76762.768900
11045.361638,1628.453072,12731.542202,-76609.549800
11045.364226,-15396.283594,15248.242405,-77222.426198
11045.366815,-8438.347739,-1036.288319,-76303.111601
11045.369403,14656.077652,8586.388927,-73391.948708
11045.371991,21465.972318,17024.736666,-74004.825107
11045.374579,-6513.812290,-5477.523971,-76915.987999
11045.377167,-16284.530724,-6661.853478,-76456.330700
11045.379756,-2368.659014,5181.441594,-75690.235202
11045.382344,-17912.983796,6365.771101,-76609.549800
11045.384932,-18801.230927,-888.247130,-77069.207099
11045.387520,12435.459826,2664.741391,-74924.139704
11045.390108,3108.864956,21614.013506,-74924.139704
11045.392697,-19689.478057,-8586.388927,-77528.864398
11045.395285,-13915.871710,-8586.388927,-76609.549800
11045.397873,6513.812290,3108.864956,-73545.167808
11045.400461,-2072.576638,4737.318029,-75383.797003
11045.403058,-10955.047942,2220.617826,-77069.207099
11045.405654,2368.659014,8290.306550,-76303.111601
11045.408251,12287.418637,6217.729913,-73851.606007
11045.410847,4885.359217,1184.329507,-77375.645298
11045.413443,-3552.988522,21169.889941,-76915.987999
11045.416040,-888.247130,17764.942608,-74617.701505
11045.418636,-4589.276840,-7698.141797,-75843.454302
11045.421233,-24278.754898,4737.318029,-79367.493593
11045.423829,-16728.654289,1184.329507,-76915.987999
11045.426426,-6513.812290,11251.130318,-75537.016103
11045.429022,-8586.388927,-1184.329507,-74924.139704
11045.431619,-17764.942608,-7846.182985,-76303.111601
11045.434215,-5477.523971,15840.407159,-73545.167808
11045.436812,-13915.871710,-2516.700203,-76762.768900
11045.439408,2812.782580,4589.276840,-74617.701505
11045.442005,14656.077652,592.164754,-75843.454302
11045.444601,-3849.070898,7846.182985,-76149.892501
11045.447198,-23242.466579,-5773.606348,-76762.768900
11045.449794,7105.977043,-2664.741391,-74158.044206
11045.452391,13619.789333,13915.871710,-72779.072310
11045.454987,-4885.359217,-4885.359217,-76609.549800
11045.457584,11843.295072,7846.182985,-76762.768900
11045.460180,20133.601622,13175.665768,-74464.482406
11045.462777,7550.100608,22502.260637,-74311.263306
11045.465373,-27831.743419,11399.171507,-76456.330700
11045.467970,-23538.548956,-3997.112087,-76762.768900
11045.470566,16284.530724,5625.565159,-75690.235202
11045.473163,21910.095883,10955.047942,-75690.235202
11045.475759,3997.112087,5625.565159,-75843.454302
11045.478356,740.205942,6661.853478,-74617.701505
11045.480952,1480.411884,-5773.606348,-74158.044206
11045.483549,16580.613101,-3997.112087,-75690.235202
11045.486145,10362.883188,14952.160028,-74311.263306
11045.488741,-17024.736666,1036.288319,-73391.948708
11045.491338,-29904.320057,11991.336260,-76762.768900
11045.493934,-29016.072926,-5329.482782,-77835.302597
11045.496531,-13619.789333,6809.894666,-78601.398095
11045.499127,7698.141797,22502.260637,-76762.768900
11045.501724,-5625.565159,30348.443622,-77988.521696
11045.504320,-16432.571912,4737.318029,-78448.178995
11045.506923,3404.947333,5773.606348,-76456.330700
11045.509525,26055.249158,20577.725188,-72625.853210
11045.512127,-5181.441594,4737.318029,-75383.797003
11045.514729,-15100.201217,4293.194464,-76456.330700
11045.517332,8882.471304,6365.771101,-75690.235202
11045.519934,9474.636058,6957.935855,-75383.797003
11045.522536,4145.153275,9622.677246,-74617.701505
11045.525138,3849.070898,1480.411884,-74924.139704
11045.527741,21910.095883,11251.130318,-73545.167808
11045.530343,4441.235652,-1036.288319,-75843.454302
11045.532945,-17616.901420,-7994.224174,-76149.892501
11045.535547,-7402.059420,-592.164754,-76303.111601
11045.538150,-11103.089130,14508.036463,-76609.549800
11045.540752,-25463.084405,5329.482782,-77222.426198
11045.543354,1480.411884,-8438.347739,-76456.330700
11045.545956,13175.665768,18209.066173,-73698.386908
11045.548559,-6069.688724,-2072.576638,-76303.111601
11045.551161,-5033.400406,-11251.130318,-76149.892501
11045.553763,1480.411884,6513.812290,-75230.577904
11045.556365,6365.771101,3997.112087,-74617.701505
11045.558968,-4441.235652,9770.718434,-75077.358804
11045.561570,-10066.800811,3701.029710,-75077.358804
11045.564172,-16876.695478,9326.594869,-75537.016103
11045.566774,-9918.759623,-5773.606348,-75230.577904
11045.569377,3701.029710,-22798.343014,-73698.386908
11045.571979,7105.977043,-21317.931130,-75996.673402
11045.574581,6217.729913,12435.459826,-77069.207099
11045.577183,6069.688724,12583.501014,-73545.167808
11045.579786,592.164754,-22946.384202,-74770.920605
11045.582388,1332.370696,-3701.029710,-75843.454302
11045.584990,148.041188,6069.688724,-73698.386908
11045.587592,-20725.766376,2516.700203,-75690.235202
11045.590195,-23982.672521,-6809.894666,-75996.673402
11045.592797,1332.370696,-7105.977043,-77069.207099
11045.595399,20429.683999,12583.501014,-74004.825107
11045.598001,-9622.677246,444.123565,-77222.426198
11045.600604,-9474.636058,-16284.530724,-75230.577904
11045.603206,25315.043216,6661.853478,-72779.072310
11045.605808,-740.205942,13027.624579,-74617.701505
11045.608410,-17024.736666,-4885.359217,-77682.083497
11045.611017,4737.318029,17172.777854,-75843.454302
11045.613623,-5921.647536,17172.777854,-76456.330700
11045.616230,-8438.347739,148.041188,-77069.207099
11045.618836,17320.819043,-6661.853478,-75690.235202
11045.621443,17024.736666,-592.164754,-73238.729609
11045.624049,36418.132346,8290.306550,-74770.920605
11045.626656,4589.276840,16136.489536,-76762.768900
11045.629262,-13471.748144,592.164754,-77222.426198
11045.631869,1332.370696,7402.059420,-74464.482406
11045.634475,-740.205942,25759.166782,-75077.358804
11045.637082,-14508.036463,9918.759623,-73698.386908
11045.639688,-18061.024985,2220.617826,-78907.836294
11045.642295,5033.400406,28423.908173,-76609.549800
11045.644901,-13323.706956,8882.471304,-77682.083497
11045.647508,-13323.706956,-15988.448347,-76456.330700
11045.650114,6365.771101,10955.047942,-73085.510509
11045.652721,6069.688724,23686.590144,-73085.510509
11045.655327,888.247130,5329.482782,-77069.207099
11045.657934,8882.471304,6513.812290,-76149.892501
11045.660540,15840.407159,16136.489536,-73391.948708
11045.663147,14952.160028,-2220.617826,-73545.167808
11045.665753,888.247130,6069.688724,-75230.577904
11045.668359,-7105.977043,1480.411884,-77528.864398
11045.670966,12879.583391,12731.542202,-74770.920605
11045.673572,-296.082377,13471.748144,-75996.673402
11045.676179,-14063.912898,8882.471304,-75996.673402
11045.678785,0.000000,-296.082377,-74004.825107
11045.681392,26943.496289,-2812.782580,-73545.167808
11045.683998,11103.089130,2368.659014,-74617.701505
11045.686605,-2812.782580,2368.659014,-75843.454302
11045.689211,-11399.171507,-12435.459826,-76915.987999
11045.691818,2960.823768,6957.935855,-74924.139704
11045.694424,-5329.482782,15544.324782,-76303.111601
11045.697031,-25759.166782,-1628.453072,-77375.645298
11045.699637,2220.617826,5773.606348,-74004.825107
11045.702244,4293.194464,2368.659014,-75383.797003
11045.704850,-14804.118840,2960.823768,-75843.454302
11045.707457,-5329.482782,-11843.295072,-75996.673402
11045.710063,9326.594869,6809.894666,-75690.235202
11045.712670,-2368.659014,17616.901420,-76609.549800
11045.715277,-11991.336260,11399.171507,-77682.083497
11045.717885,-14804.118840,4885.359217,-74924.139704
11045.720492,4293.194464,-17024.736666,-74770.920605
11045.723100,148.041188,20725.766376,-77528.864398
11045.725707,-148.041188,20281.642811,-73545.167808
11045.728315,-17024.736666,-20873.807564,-79673.931792
11045.730922,-2960.823768,6661.853478,-77835.302597
11045.733530,-3256.906145,11547.212695,-75996.673402
11045.736137,-23538.548956,-7105.977043,-77835.302597
11045.738745,-8586.388927,888.247130,-74311.263306
11045.741352,12287.418637,-9770.718434,-71706.538613
11045.743960,13027.624579,2368.659014,-75843.454302
11045.746567,-2812.782580,10955.047942,-75843.454302
11045.749175,-8142.265362,7105.977043,-76915.987999
11045.751782,-13619.789333,-9918.759623,-74617.701505
11045.754390,15248.242405,-2220.617826,-73391.948708
11045.756997,8882.471304,16728.654289,-74158.044206
11045.759605,-11103.089130,-2072.576638,-77222.426198
11045.762212,1924.535449,14508.036463,-77222.426198
11045.764820,3849.070898,17320.819043,-76456.330700
11045.767427,-5477.523971,2960.823768,-75230.577904
11045.770035,3552.988522,-3108.864956,-72932.291410
11045.772642,28127.825796,444.123565,-72779.072310
11045.775250,17468.860231,12435.459826,-74924.139704
11045.777857,-8142.265362,3552.988522,-77682.083497
11045.780465,-7550.100608,5329.482782,-77375.645298
11045.783072,-2516.700203,9030.512492,-75077.358804
11045.785680,-1480.411884,11843.295072,-75077.358804
11045.788287,-4441.235652,-6365.771101,-74464.482406
11045.790895,5033.400406,148.041188,-75843.454302
11045.793502,22946.384202,3849.070898,-71093.662214
11045.796110,9770.718434,-4589.276840,-73391.948708
11045.798717,8438.347739,-4441.235652,-72472.634111
11045.801325,-296.082377,-3997.112087,-75230.577904
11045.803932,4441.235652,1036.288319,-76609.549800
11045.806540,14508.036463,15692.365970,-75077.358804
11045.809147,2960.823768,16432.571912,-74924.139704
11045.811755,-4293.194464,4293.194464,-76915.987999
11045.814362,7254.018232,1036.288319,-74924.139704
11045.816970,7550.100608,4441.235652,-75843.454302
11045.819577,740.205942,18061.024985,-75996.673402
11045.822185,-18653.189738,6513.812290,-77528.864398
11045.824793,-9622.677246,2960.823768,-76303.111601
11045.827401,20133.601622,7550.100608,-74464.482406
11045.830009,26203.290347,15396.283594,-74464.482406
11045.832617,-13027.624579,-2220.617826,-76456.330700
11045.835225,-19097.313304,-11399.171507,-75537.016103
11045.837833,-2220.617826,8734.430116,-76149.892501
11045.840441,-19393.395680,3701.029710,-76762.768900
11045.843049,-12879.583391,-4885.359217,-75690.235202
11045.845657,-5921.647536,-5773.606348,-76303.111601
11045.848265,8734.430116,22798.343014,-74158.044206
11045.850873,-10510.924376,-592.164754,-76456.330700
11045.853481,-7550.100608,-14359.995275,-75537.016103
11045.856089,8882.471304,3849.070898,-74464.482406
11045.858697,-592.164754,9178.553681,-75843.454302
11045.861304,-15840.407159,-2072.576638,-76762.768900
11045.863912,-10214.842000,5033.400406,-78601.398095
11045.866520,-6513.812290,25759.166782,-73545.167808
11045.869128,-6809.894666,-6217.729913,-76609.549800
11045.871736,-6069.688724,-17172.777854,-77528.864398
11045.874344,-6957.935855,12879.583391,-75843.454302
11045.876952,3108.864956,13323.706956,-74924.139704
11045.879560,-6217.729913,11991.336260,-76149.892501
11045.882168,-14656.077652,-19393.395680,-77988.521696
11045.884776,1628.453072,-3997.112087,-74617.701505
11045.887384,1184.329507,21762.054695,-73545.167808
11045.889992,-33457.308578,1036.288319,-76456.330700
11045.892600,-26795.455100,-444.123565,-77375.645298
11045.895208,13175.665768,3849.070898,-76762.768900
11045.897816,9474.636058,11251.130318,-75690.235202
11045.900424,-19097.313304,-8586.388927,-76149.892501
11045.903031,6661.853478,-5329.482782,-73545.167808
11045.905638,20725.766376,17468.860231,-72319.415011
11045.908246,-6809.894666,-4737.318029,-77069.207099
11045.910853,3256.906145,3256.906145,-76456.330700
11045.913461,15544.324782,15692.365970,-75077.358804
11045.916068,-2664.741391,25315.043216,-73851.606007
11045.918676,-33901.432144,4293.194464,-76762.768900
11045.921283,-10955.047942,-5181.441594,-76149.892501
11045.923891,27979.784608,7105.977043,-75383.797003
11045.926498,15544.324782,16728.654289,-76609.549800
11045.929106,-7402.059420,5773.606348,-76915.987999
11045.931713,1628.453072,8438.347739,-73851.606007
11045.934321,-1036.288319,18061.024985,-74158.044206
11045.936928,-6809.894666,12139.377449,-76609.549800
11045.939536,-12139.377449,-888.247130,-77835.302597
11045.942143,-444.123565,5773.606348,-76303.111601
11045.944751,-888.247130,19393.395680,-74311.263306
11045.947358,7402.059420,10066.800811,-75383.797003
11045.949966,4145.153275,5181.441594,-77069.207099
11045.952573,-4145.153275,12731.542202,-76149.892501
11045.955180,8734.430116,4737.318029,-74924.139704
11045.957788,11695.253884,14211.954086,-73851.606007
11045.960395,1628.453072,1332.370696,-75843.454302
11045.963003,4145.153275,888.247130,-76762.768900
11045.965610,2664.741391,18505.148550,-74311.263306
11045.968218,-5477.523971,-3997.112087,-77528.864398
11045.970825,13471.748144,7698.141797,-74004.825107
11045.973433,14508.036463,20725.766376,-74464.482406
11045.976040,22206.178260,17320.819043,-74158.044206
11045.978648,-12139.377449,148.041188,-77069.207099
11045.981255,-17468.860231,-12731.542202,-75843.454302
11045.983863,-3701.029710,8734.430116,-74924.139704
11045.986470,-16136.489536,888.247130,-77069.207099
11045.989078,-13619.789333,-1332.370696,-76915.987999
11045.991685,11547.212695,7994.224174,-75383.797003
11045.994293,4885.359217,3404.947333,-72932.291410
11045.996900,-2072.576638,-8142.265362,-75230.577904
11045.999508,6661.853478,-1628.453072,-74924.139704
11046.002115,-9770.718434,12583.501014,-76149.892501
11046.004722,-20429.683999,-6809.894666,-77528.864398
11046.007328,-19689.478057,-9030.512492,-77835.302597
11046.009934,-5181.441594,-3256.906145,-75843.454302
11046.012540,3256.906145,-6365.771101,-75077.358804
11046.015146,8438.347739,-10807.006753,-75690.235202
11046.017752,18505.148550,5773.606348,-73851.606007
11046.020358,-5773.606348,17172.777854,-76609.549800
11046.022964,-10066.800811,-7550.100608,-74617.701505
11046.025569,-1184.329507,-9030.512492,-74770.920605
11046.028175,444.123565,10658.965565,-75690.235202
11046.030781,-9030.512492,-2220.617826,-74004.825107
11046.033387,-10214.842000,-10066.800811,-76915.987999
11046.035993,5921.647536,10658.965565,-72932.291410
11046.038599,-14359.995275,6365.771101,-76762.768900
11046.041205,-10658.965565,-444.123565,-76762.768900
11046.043811,-1184.329507,-8142.265362,-77835.302597
11046.046416,8734.430116,13471.748144,-73851.606007
11046.049022,-19393.395680,2072.576638,-75537.016103
11046.051628,-7698.141797,1776.494261,-76609.549800
11046.054234,4737.318029,22650.301825,-75230.577904
11046.056840,-8734.430116,7254.018232,-77528.864398
11046.059446,6661.853478,2664.741391,-76456.330700
11046.062052,26203.290347,15248.242405,-73851.606007
11046.064658,1184.329507,18653.189738,-74158.044206
11046.067263,-27831.743419,-148.041188,-76762.768900
11046.069869,-7105.977043,-6217.729913,-77682.083497
11046.072475,4441.235652,5921.647536,-75537.016103
11046.075081,5773.606348,14359.995275,-75996.673402
11046.077687,-5773.606348,14211.954086,-75690.235202
11046.080293,444.123565,11695.253884,-72166.195912
11046.082899,-6365.771101,9326.594869,-76762.768900
11046.085505,2664.741391,4885.359217,-74924.139704
11046.088110,-2960.823768,2812.782580,-75996.673402
11046.090716,-8882.471304,14359.995275,-77528.864398
11046.093322,-7994.224174,11843.295072,-76303.111601
11046.095928,-888.247130,3849.070898,-78141.740796
11046.098534,20281.642811,12879.583391,-74311.263306
11046.101140,8734.430116,19245.354492,-74617.701505
11046.103746,-5921.647536,3701.029710,-73545.167808
11046.106352,-4737.318029,3701.029710,-76915.987999
11046.108957,-5773.606348,13175.665768,-76915.987999
11046.111560,-7402.059420,5329.482782,-77222.426198
11046.114163,6809.894666,4885.359217,-76149.892501
11046.116766,16284.530724,16580.613101,-74617.701505
11046.119369,5921.647536,22798.343014,-74924.139704
11046.121972,-25315.043216,-6513.812290,-77222.426198
11046.124575,-13767.830521,-7550.100608,-75996.673402
11046.127178,-1924.535449,12731.542202,-75690.235202
11046.129781,-18357.107362,-5181.441594,-78754.617194
11046.132384,-1628.453072,-888.247130,-75690.235202
11046.134987,14804.118840,-296.082377,-75843.454302
11046.137590,9622.677246,11843.295072,-72319.415011
11046.140193,-2516.700203,-6957.935855,-76303.111601
11046.142796,3256.906145,-3108.864956,-75077.358804
11046.145399,-5033.400406,11103.089130,-75690.235202
11046.148002,-13323.706956,-5921.647536,-77528.864398
11046.150605,-13027.624579,5921.647536,-78294.959896
11046.153208,1776.494261,7994.224174,-74924.139704
11046.155811,-888.247130,4589.276840,-76762.768900
11046.158414,2812.782580,9622.677246,-75537.016103
11046.161017,-10955.047942,11843.295072,-75537.016103
11046.163619,1332.370696,2812.782580,-71093.662214
11046.166222,296.082377,-5329.482782,-74464.482406
11046.168825,-5625.565159,-2664.741391,-76149.892501
11046.171428,-9178.553681,-1480.411884,-78294.959896
11046.174031,-10510.924376,14656.077652,-76915.987999
11046.176634,-22354.219448,8142.265362,-74924.139704
11046.179237,-25759.166782,-296.082377,-76762.768900
11046.181840,-2072.576638,1480.411884,-77375.645298
11046.184443,15100.201217,5477.523971,-75537.016103
11046.187046,0.000000,-4441.235652,-75690.235202
11046.189649,8438.347739,-2664.741391,-73851.606007
11046.192252,9918.759623,5773.606348,-73851.606007
11046.194855,-3849.070898,-3256.906145,-76609.549800
11046.197458,9326.594869,13027.624579,-76915.987999
11046.200061,12879.583391,21317.931130,-75843.454302
11046.202664,-10510.924376,20873.807564,-75690.235202
11046.205267,-29164.114115,-3256.906145,-76149.892501
11046.207870,3849.070898,1480.411884,-74311.263306
11046.210473,26055.249158,6661.853478,-74924.139704
11046.213076,8142.265362,14804.118840,-76609.549800
11046.215676,-5773.606348,1628.453072,-76915.987999
11046.218276,7994.224174,4885.359217,-73698.386908
11046.220876,5625.565159,22502.260637,-73238.729609
11046.223476,-6957.935855,13767.830521,-77375.645298
11046.226077,-22798.343014,25759.166782,-78141.740796
11046.228677,-24574.837274,15988.448347,-82125.437386
11046.231277,-16284.530724,12435.459826,-80133.589091
11046.233877,6661.853478,8290.306550,-75690.235202
11046.236477,-4145.153275,12879.583391,-74924.139704
11046.239078,-10955.047942,-5477.523971,-76303.111601
11046.241678,17024.736666,-2812.782580,-75077.358804
11046.244278,31532.773129,14211.954086,-71093.662214
11046.246878,4885.359217,-592.164754,-75690.235202
11046.249478,-14952.160028,10658.965565,-76303.111601
11046.252079,-6661.853478,9178.553681,-76303.111601
11046.254679,9770.718434,6809.894666,-76456.330700
11046.257279,11695.253884,16284.530724,-75077.358804
11046.259879,3701.029710,18061.024985,-75690.235202
11046.262479,-23094.425390,5477.523971,-76915.987999
11046.265080,-22946.384202,-9770.718434,-76149.892501
11046.267680,-11251.130318,-444.123565,-76456.330700
11046.270280,-11991.336260,3701.029710,-77222.426198
11046.272880,-13027.624579,-1924.535449,-77528.864398
11046.275481,8290.306550,8438.347739,-75690.235202
11046.278081,7846.182985,2516.700203,-73238.729609
11046.280681,2516.700203,-6365.771101,-74464.482406
11046.283281,148.041188,-888.247130,-75383.797003
11046.285881,-11251.130318,3849.070898,-75690.235202
11046.288482,-6809.894666,-6957.935855,-77682.083497
11046.291082,-1332.370696,12731.542202,-77069.207099
11046.293682,-1924.535449,12435.459826,-76456.330700
11046.296282,-11547.212695,8882.471304,-77528.864398
11046.298882,-888.247130,6661.853478,-73391.948708
11046.301483,-6365.771101,-13027.624579,-76456.330700
11046.304083,10807.006753,2664.741391,-72166.195912
11046.306683,5181.441594,8438.347739,-74158.044206
11046.309283,-14063.912898,-3108.864956,-76149.892501
11046.311883,-16432.571912,-3552.988522,-76915.987999
11046.314484,-1332.370696,-11103.089130,-75996.673402
11046.317084,16284.530724,3997.112087,-72472.634111
11046.319636,1480.411884,10362.883188,-74464.482406
11046.322188,-21021.848753,-296.082377,-77375.645298
11046.324740,-3997.112087,-296.082377,-77528.864398
11046.327292,148.041188,11991.336260,-74004.825107
11046.329844,-10807.006753,9918.759623,-74924.139704
11046.332396,-15840.407159,-1776.494261,-77835.302597
11046.334947,4589.276840,26203.290347,-75996.673402
11046.337499,-2812.782580,9918.759623,-77222.426198
11046.340051,2516.700203,-592.164754,-75690.235202
11046.342603,23242.466579,9918.759623,-73851.606007
11046.345155,10066.800811,18061.024985,-73698.386908
11046.347707,-25167.002028,7105.977043,-77682.083497
11046.350259,-16284.530724,-7994.224174,-78141.740796
11046.352811,12731.542202,14952.160028,-74924.139704
11046.355363,5625.565159,17320.819043,-75230.577904
11046.357915,-7994.224174,10510.924376,-75996.673402
11046.360467,-7550.100608,3997.112087,-75537.016103
11046.363019,9770.718434,1776.494261,-73545.167808
11046.365571,19097.313304,-4737.318029,-72012.976812
11046.368123,18357.107362,-3849.070898,-73545.167808
11046.370675,3404.947333,8438.347739,-77069.207099
11046.373227,4885.359217,11251.130318,-74464.482406
11046.375779,1184.329507,-2516.700203,-76149.892501
11046.378331,7402.059420,8438.347739,-74924.139704
11046.380883,9622.677246,11843.295072,-75383.797003
11046.383435,7402.059420,5477.523971,-75230.577904
11046.385987,-7402.059420,14804.118840,-76149.892501
11046.388539,-7846.182985,2220.617826,-75537.016103
11046.391091,8882.471304,5625.565159,-75383.797003
11046.393643,10658.965565,2516.700203,-74924.139704
11046.396195,22206.178260,17616.901420,-74770.920605
11046.398746,-4293.194464,2664.741391,-74617.701505
11046.401298,-15100.201217,-13767.830521,-75690.235202
11046.403850,-5329.482782,7254.018232,-75843.454302
11046.406402,-21169.889941,4737.318029,-77988.521696
11046.408954,-22206.178260,-1924.535449,-77375.645298
11046.411506,10214.842000,7105.977043,-75230.577904
11046.414058,8438.347739,3404.947333,-74158.044206
11046.416610,4145.153275,-1332.370696,-74617.701505
11046.419162,148.041188,-3108.864956,-75230.577904
11046.421722,-9770.718434,4145.153275,-74924.139704
11046.424281,-4885.359217,-1924.535449,-76149.892501
11046.426841,-5477.523971,-4737.318029,-76915.987999
11046.429400,3849.070898,7550.100608,-77682.083497
11046.431959,-2960.823768,18357.107362,-75843.454302
11046.434519,740.205942,1036.288319,-75996.673402
11046.437078,-4885.359217,-2960.823768,-76303.111601
11046.439638,-13471.748144,5773.606348,-75230.577904
11046.442197,-9474.636058,-8882.471304,-74311.263306
11046.444757,-3404.947333,-1184.329507,-75537.016103
11046.447316,9326.594869,9770.718434,-75077.358804
11046.449875,-24722.878463,10066.800811,-77069.207099
11046.452435,-38046.585419,3108.864956,-77069.207099
11046.454994,-4885.359217,-6957.935855,-76456.330700
11046.457554,-1184.329507,12139.377449,-75996.673402
11046.460113,-1924.535449,-1628.453072,-76149.892501
11046.462673,1184.329507,-5773.606348,-74924.139704
11046.465232,13323.706956,9622.677246,-73545.167808
11046.467791,5329.482782,-1480.411884,-75077.358804
11046.470351,10658.965565,8586.388927,-75537.016103
11046.472910,11103.089130,16432.571912,-75383.797003
11046.475470,-11547.212695,14211.954086,-74464.482406
11046.478029,-17024.736666,-9178.553681,-75537.016103
11046.480589,22354.219448,-2516.700203,-73391.948708
11046.483148,31680.814318,15396.283594,-74158.044206
11046.485707,-6661.853478,10510.924376,-77375.645298
11046.488267,-6809.894666,5625.565159,-75843.454302
11046.490826,9918.759623,2664.741391,-73238.729609
11046.493386,148.041188,13471.748144,-77988.521696
11046.495945,-5921.647536,19245.354492,-75537.016103
11046.498505,-25907.207970,2220.617826,-80440.027290
11046.501064,-12583.501014,-1332.370696,-77375.645298
11046.503624,2072.576638,16728.654289,-75537.016103
11046.506183,4293.194464,22798.343014,-74617.701505
11046.508742,-4589.276840,-1776.494261,-74924.139704
11046.511302,-1480.411884,5033.400406,-76303.111601
11046.513861,13767.830521,15248.242405,-76149.892501
11046.516421,10807.006753,444.123565,-75077.358804
11046.518980,-8882.471304,14508.036463,-75843.454302
11046.521540,-11695.253884,6957.935855,-75690.235202
11046.524105,-5329.482782,6661.853478,-75537.016103
11046.526670,12287.418637,7402.059420,-75537.016103
11046.529235,16432.571912,14952.160028,-74617.701505
11046.531800,-12879.583391,4293.194464,-76915.987999
11046.534366,-18357.107362,-7254.018232,-75537.016103
11046.536931,-9326.594869,5477.523971,-76149.892501
11046.539496,-23390.507767,-296.082377,-77375.645298
11046.542061,-11251.130318,-6365.771101,-76149.892501
11046.544626,19837.519246,11843.295072,-75077.358804
11046.547192,4589.276840,9326.594869,-75996.673402
11046.549757,-3701.029710,4441.235652,-75383.797003
11046.552322,6661.853478,-5625.565159,-74464.482406
11046.554887,-6365.771101,5773.606348,-74770.920605
11046.557452,-9622.677246,1184.329507,-76149.892501
11046.560018,-6365.771101,1776.494261,-76609.549800
11046.562583,-12583.501014,13619.789333,-77682.083497
11046.565148,-5181.441594,12435.459826,-77682.083497
11046.567713,-9918.759623,-2072.576638,-74004.825107
11046.570279,-1480.411884,-12139.377449,-74617.701505
11046.572844,10510.924376,6069.688724,-73085.510509
11046.575409,-5033.400406,5921.647536,-75383.797003
11046.577974,-13471.748144,-9326.594869,-77222.426198
11046.580539,-9770.718434,-10807.006753,-77375.645298
11046.583105,7698.141797,9178.553681,-72166.195912
11046.585670,17912.983796,5921.647536,-74311.263306
11046.588235,-11103.089130,9770.718434,-76915.987999
11046.590800,-12583.501014,-9030.512492,-78754.617194
11046.593365,5921.647536,12139.377449,-74770.920605
11046.595931,-14804.118840,6661.853478,-75537.016103
11046.598496,-10214.842000,-3404.947333,-76456.330700
11046.601061,7846.182985,25018.960840,-74617.701505
11046.603626,7402.059420,8290.306550,-77069.207099
11046.606191,10510.924376,6365.771101,-75077.358804
11046.608757,10510.924376,20873.807564,-74311.263306
11046.611322,-11103.089130,11843.295072,-74924.139704
11046.613887,-24870.919651,6513.812290,-75843.454302
11046.616452,-15248.242405,-6365.771101,-77988.521696
11046.619018,2960.823768,15100.201217,-76149.892501
11046.621583,1184.329507,11695.253884,-76456.330700
11046.624148,-1332.370696,-4293.194464,-74924.139704
11046.626717,6809.894666,-2220.617826,-72932.291410
11046.629286,21465.972318,-7402.059420,-73085.510509
11046.631855,29608.237680,1776.494261,-72779.072310
11046.634423,23538.548956,23094.425390,-71246.881314
11046.636992,-7698.141797,-5477.523971,-77835.302597
11046.639561,2220.617826,740.205942,-74924.139704
11046.642130,11547.212695,16136.489536,-74617.701505
11046.644699,8290.306550,8142.265362,-74004.825107
11046.647268,-4145.153275,0.000000,-76762.768900
11046.649837,-4293.194464,17320.819043,-76609.549800
11046.652406,-1332.370696,8586.388927,-75383.797003
11046.654975,6513.812290,148.041188,-76149.892501
11046.657543,14359.995275,12731.542202,-74158.044206
11046.660112,5773.606348,21614.013506,-75383.797003
11046.662681,-21021.848753,4885.359217,-77988.521696
11046.665250,-14656.077652,-7846.182985,-75996.673402
11046.667819,-9178.553681,3552.988522,-75077.358804
11046.670388,-19393.395680,-6217.729913,-78141.740796
11046.672957,2812.782580,888.247130,-75537.016103
11046.675526,15692.365970,15396.283594,-75383.797003
11046.678095,-7698.141797,7254.018232,-74311.263306
11046.680663,2664.741391,2664.741391,-75077.358804
11046.683232,-9030.512492,-1332.370696,-75843.454302
11046.685801,-17172.777854,2072.576638,-76303.111601
11046.688370,-6513.812290,0.000000,-75230.577904
11046.690939,-3552.988522,0.000000,-77835.302597
11046.693508,-10955.047942,21317.931130,-76149.892501
11046.696077,-8734.430116,9770.718434,-77835.302597
11046.698646,-12287.418637,2220.617826,-77222.426198
11046.701215,1184.329507,11547.212695,-72319.415011
11046.703783,-7402.059420,-1480.411884,-76303.111601
11046.706352,-10510.924376,3256.906145,-75843.454302
11046.708921,-7550.100608,-1184.329507,-77835.302597
11046.711490,-12879.583391,21317.931130,-75996.673402
11046.714059,-25611.125593,-1332.370696,-75843.454302
11046.716628,-11695.253884,-10066.800811,-76609.549800
11046.719197,9918.759623,11695.253884,-74311.263306
11046.721766,14656.077652,-12731.542202,-74617.701505
11046.724335,17320.819043,3997.112087,-74617.701505
11046.726903,-1628.453072,5625.565159,-74158.044206
11046.729476,-13027.624579,-7105.977043,-78448.178995
11046.732048,3552.988522,23094.425390,-76303.111601
11046.734620,-5329.482782,11251.130318,-76303.111601
11046.737192,-3256.906145,592.164754,-75077.358804
11046.739764,26203.290347,444.123565,-74004.825107
11046.742336,35233.802839,592.164754,-72779.072310
11046.744909,25315.043216,13767.830521,-73851.606007
11046.747481,-9326.594869,592.164754,-77222.426198
11046.750053,-10510.924376,10214.842000,-77222.426198
11046.752625,-6661.853478,10066.800811,-76762.768900
11046.755197,-11991.336260,11991.336260,-76762.768900
11046.757769,-11103.089130,9918.759623,-75537.016103
11046.760342,-10362.883188,8438.347739,-76149.892501
11046.762914,-24574.837274,12287.418637,-79367.493593
11046.765486,-8438.347739,9622.677246,-76456.330700
11046.768058,-1776.494261,16876.695478,-77528.864398
11046.770630,3849.070898,22502.260637,-75996.673402
11046.773202,7105.977043,9770.718434,-75537.016103
11046.775775,17616.901420,6069.688724,-73391.948708
11046.778347,5329.482782,3552.988522,-73085.510509
11046.780919,3256.906145,-6365.771101,-75843.454302
11046.783491,22798.343014,11103.089130,-74924.139704
11046.786063,5921.647536,24574.837274,-75230.577904
11046.788635,-22502.260637,9326.594869,-77222.426198
11046.791207,-14656.077652,-2960.823768,-76456.330700
11046.793780,5477.523971,4737.318029,-74311.263306
11046.796352,-1036.288319,-5181.441594,-74617.701505
11046.798924,740.205942,-17172.777854,-76303.111601
11046.801496,10807.006753,11695.253884,-75537.016103
11046.804068,-13767.830521,15840.407159,-77222.426198
11046.806640,-16580.613101,7846.182985,-76456.330700
11046.809213,-26055.249158,8734.430116,-75537.016103
11046.811785,-14656.077652,-1924.535449,-76456.330700
11046.814357,-4589.276840,444.123565,-75843.454302
11046.816929,1628.453072,-5477.523971,-75996.673402
11046.819501,-2516.700203,9770.718434,-78448.178995
11046.822073,-8882.471304,22798.343014,-74311.263306
11046.824646,-6809.894666,-7698.141797,-78294.959896
11046.827218,-10066.800811,14656.077652,-79520.712692
11046.829790,-6513.812290,24130.713709,-72625.853210
11046.832323,-14804.118840,-9474.636058,-76149.892501
11046.834855,-7254.018232,5921.647536,-75690.235202
11046.837388,1480.411884,-13323.706956,-77375.645298
11046.839921,4145.153275,17172.777854,-74311.263306
11046.842453,-18209.066173,1480.411884,-75230.577904
11046.844986,-20133.601622,-8438.347739,-76456.330700
11046.847519,-1628.453072,11695.253884,-74617.701505
11046.850052,-3256.906145,-11103.089130,-76915.987999
11046.852584,13767.830521,-1924.535449,-74158.044206
11046.855117,19097.313304,4737.318029,-73391.948708
11046.857650,2960.823768,-2664.741391,-76303.111601
11046.860182,5773.606348,14952.160028,-76303.111601
11046.862715,148.041188,15840.407159,-74617.701505
11046.865248,-10214.842000,7550.100608,-74004.825107
11046.867780,8290.306550,-7994.224174,-76149.892501
11046.870313,11843.295072,-6069.688724,-74617.701505
11046.872846,34789.679274,11399.171507,-72932.291410
11046.875379,3701.029710,9474.636058,-76456.330700
11046.877911,-11547.212695,8290.306550,-77375.645298
11046.880444,-148.041188,17764.942608,-74311.263306
11046.882977,888.247130,15544.324782,-75077.358804
11046.885509,-11103.089130,11103.089130,-77222.426198
11046.888042,-15100.201217,3849.070898,-78907.836294
11046.890575,3997.112087,5181.441594,-74617.701505
11046.893107,5181.441594,11103.089130,-76456.330700
11046.895640,-5329.482782,4145.153275,-75690.235202
11046.898173,-8882.471304,2516.700203,-76609.549800
11046.900706,15544.324782,11991.336260,-74770.920605
11046.903238,15396.283594,8290.306550,-74464.482406
11046.905771,-740.205942,14359.995275,-77835.302597
11046.908304,-13767.830521,8438.347739,-76915.987999
11046.910836,-8734.430116,3552.988522,-75537.016103
11046.913369,13323.706956,4589.276840,-74464.482406
11046.915902,23390.507767,11695.253884,-74617.701505
11046.918435,-1776.494261,740.205942,-75537.016103
11046.920967,-13767.830521,-8142.265362,-75230.577904
11046.923500,-4441.235652,3701.029710,-75690.235202
11046.926033,-25759.166782,1776.494261,-77988.521696
11046.928565,-24574.837274,-4145.153275,-77682.083497
11046.931098,-10362.883188,-3108.864956,-75996.673402
11046.933642,8290.306550,6957.935855,-73085.510509
11046.936185,10066.800811,-1184.329507,-75690.235202
11046.938729,5033.400406,-5625.565159,-74617.701505
11046.941272,-5329.482782,3849.070898,-74924.139704
11046.943816,-7402.059420,-3997.112087,-73545.167808
11046.946359,-12879.583391,-9030.512492,-77222.426198
11046.948903,10510.924376,3997.112087,-75077.358804
11046.951446,5033.400406,13619.789333,-74464.482406
11046.953990,-7254.018232,-12731.542202,-74311.263306
11046.956534,4885.359217,-9770.718434,-74617.701505
11046.959077,1776.494261,12435.459826,-75077.358804
11046.961621,-1184.329507,3404.947333,-77835.302597
11046.964164,-8882.471304,9178.553681,-76762.768900
11046.966708,-19985.560434,4589.276840,-74770.920605
11046.969251,-15100.201217,-5033.400406,-75690.235202
11046.971795,-1776.494261,7994.224174,-74924.139704
11046.974338,-2368.659014,-16876.695478,-76303.111601
11046.976882,18653.189738,-444.123565,-73851.606007
11046.979425,21317.931130,8734.430116,-73545.167808
11046.981969,296.082377,-4589.276840,-77069.207099
11046.984513,-1480.411884,18061.024985,-77375.645298
11046.987056,-8290.306550,17320.819043,-75230.577904
11046.989600,-10214.842000,5033.400406,-74617.701505
11046.992143,19245.354492,-4293.194464,-74770.920605
11046.994687,27535.661042,-1924.535449,-72932.291410
11046.997230,31976.896694,11103.089130,-73851.606007
11046.999774,-3404.947333,4589.276840,-76456.330700
11047.002317,-11843.295072,7550.100608,-77069.207099
11047.004861,-296.082377,13175.665768,-76762.768900
11047.007404,8290.306550,12583.501014,-74311.263306
11047.009948,-6069.688724,7402.059420,-76915.987999
11047.012492,-16136.489536,2220.617826,-77528.864398
11047.015035,3404.947333,2664.741391,-71706.538613
11047.017579,24574.837274,15692.365970,-74158.044206
11047.020122,-1776.494261,22206.178260,-76609.549800
11047.022666,-16728.654289,-2368.659014,-77835.302597
11047.025209,-148.041188,4145.153275,-76149.892501
11047.027753,27387.619854,6365.771101,-71246.881314
11047.030296,17172.777854,-6365.771101,-76915.987999
11047.032840,15544.324782,14804.118840,-73238.729609
11047.035391,-4145.153275,14508.036463,-74311.263306
11047.037943,-19837.519246,8734.430116,-77222.426198
11047.040494,-6957.935855,-2960.823768,-75996.673402
11047.043046,11251.130318,-148.041188,-74770.920605
11047.045597,2368.659014,-1628.453072,-74464.482406
11047.048149,1628.453072,-10658.965565,-76149.892501
11047.050700,-5625.565159,6365.771101,-77682.083497
11047.053252,-24574.837274,5625.565159,-77835.302597
11047.055803,-15840.407159,-740.205942,-75537.016103
11047.058355,-18061.024985,6365.771101,-74004.825107
11047.060906,-2812.782580,-5921.647536,-76303.111601
11047.063457,15692.365970,-3701.029710,-74158.044206
11047.066009,10362.883188,9326.594869,-74311.263306
11047.068560,-6069.688724,2960.823768,-76915.987999
11047.071112,-22058.137072,19837.519246,-77835.302597
11047.073663,-13915.871710,2072.576638,-80286.808190
11047.076215,1776.494261,-5625.565159,-74004.825107
11047.078766,-8882.471304,3849.070898,-77528.864398
11047.081318,-10807.006753,4589.276840,-74158.044206
11047.083869,-7846.182985,-3256.906145,-73545.167808
11047.086421,-8734.430116,-15100.201217,-75537.016103
11047.088972,-32272.979071,1776.494261,-78907.836294
11047.091524,-10214.842000,-5477.523971,-77835.302597
11047.094075,10658.965565,14804.118840,-74464.482406
11047.096627,11695.253884,-6069.688724,-75230.577904
11047.099178,-740.205942,5477.523971,-74924.139704
11047.101730,-22354.219448,2664.741391,-75537.016103
11047.104281,-6957.935855,-296.082377,-77835.302597
11047.106832,4589.276840,29756.278868,-76609.549800
11047.109384,-5921.647536,7698.141797,-77375.645298
11047.111935,12435.459826,4885.359217,-74464.482406
11047.114487,24130.713709,26203.290347,-72625.853210
11047.117038,-14359.995275,16432.571912,-74924.139704
11047.119590,-18505.148550,12731.542202,-78141.740796
11047.122141,-19245.354492,-8882.471304,-78294.959896
11047.124693,10510.924376,15692.365970,-74464.482406
11047.127244,4145.153275,22502.260637,-74924.139704
11047.129796,-1776.494261,8438.347739,-75996.673402
11047.132347,-5625.565159,21614.013506,-75996.673402
11047.134899,-13767.830521,444.123565,-77069.207099
11047.137457,740.205942,-9030.512492,-74004.825107
11047.140015,16876.695478,20429.683999,-74617.701505
11047.142573,0.000000,17468.860231,-75690.235202
11047.145131,-9326.594869,-4737.318029,-75537.016103
11047.147689,15396.283594,4145.153275,-76456.330700
11047.150247,14211.954086,12731.542202,-71093.662214
11047.152805,5773.606348,-3997.112087,-76609.549800
11047.155363,14211.954086,4441.235652,-75230.577904
11047.157922,12731.542202,19837.519246,-74770.920605
11047.160480,-10066.800811,12287.418637,-75690.235202
11047.163038,-18801.230927,-2664.741391,-76149.892501
11047.165596,-1776.494261,2664.741391,-74924.139704
11047.168154,-1332.370696,-1184.329507,-74770.920605
11047.170712,444.123565,-16284.530724,-76609.549800
11047.173270,2220.617826,4145.153275,-75996.673402
11047.175828,-13619.789333,12287.418637,-76762.768900
11047.178386,-16728.654289,-1184.329507,-77069.207099
11047.180945,-15396.283594,6217.729913,-73698.386908
11047.183503,-1036.288319,-8734.430116,-75383.797003
11047.186061,13471.748144,-6365.771101,-74311.263306
11047.188619,6513.812290,-1332.370696,-77528.864398
11047.191177,5033.400406,-3701.029710,-74311.263306
11047.193735,-1776.494261,5033.400406,-75843.454302
11047.196293,8586.388927,-3108.864956,-74311.263306
11047.198851,-5921.647536,-6957.935855,-77222.426198
11047.201409,6365.771101,4737.318029,-71553.319513
11047.203968,2812.782580,-6513.812290,-71859.757712
11047.206526,-888.247130,-9622.677246,-75690.235202
11047.209084,1776.494261,6809.894666,-75230.577904
11047.211642,-21465.972318,6661.853478,-78141.740796
11047.214200,-18357.107362,2072.576638,-77375.645298
11047.216758,-18801.230927,7105.977043,-76149.892501
11047.219316,-15396.283594,-8438.347739,-76456.330700
11047.221874,7402.059420,2072.576638,-74311.263306
11047.224432,16728.654289,4885.359217,-74158.044206
11047.226991,8882.471304,-5477.523971,-75537.016103
11047.229549,20725.766376,16580.613101,-75996.673402
11047.232107,5329.482782,22650.301825,-75843.454302
11047.234665,-19689.478057,8290.306550,-75077.358804
11047.237223,592.164754,-15248.242405,-74617.701505
11047.239787,33753.390955,1184.329507,-73085.510509
11047.242350,12731.542202,16136.489536,-76149.892501
11047.244914,2220.617826,14359.995275,-77835.302597
11047.247477,-14804.118840,3256.906145,-77375.645298
11047.250041,2960.823768,14952.160028,-73238.729609
11047.252604,-10362.883188,11843.295072,-74464.482406
11047.255168,-5921.647536,-2664.741391,-75077.358804
11047.257732,-12731.542202,19097.313304,-77988.521696
11047.260295,-5181.441594,26203.290347,-75383.797003
11047.262859,-5773.606348,2960.823768,-79520.712692
11047.265422,5921.647536,22650.301825,-77069.207099
11047.267986,10066.800811,20281.642811,-74311.263306
11047.270549,1628.453072,-1036.288319,-75077.358804
11047.273113,12287.418637,12731.542202,-74617.701505
11047.275676,-1036.288319,7846.182985,-76609.549800
11047.278240,-2516.700203,15544.324782,-75230.577904
11047.280804,-18209.066173,-1184.329507,-76303.111601
11047.283367,11843.295072,-5181.441594,-75077.358804
11047.285931,22502.260637,11547.212695,-73085.510509
11047.288494,-11251.130318,-5033.400406,-75230.577904
11047.291058,-10510.924376,-9178.553681,-76303.111601
11047.293621,-12879.583391,9030.512492,-77835.302597
11047.296185,-28423.908173,3997.112087,-78754.617194
11047.298749,-7846.182985,-1628.453072,-75690.235202
11047.301312,11843.295072,8290.306550,-74770.920605
11047.303876,11251.130318,13915.871710,-74464.482406
11047.306439,-14952.160028,-1480.411884,-77988.521696
11047.309003,-9770.718434,-8586.388927,-77528.864398
11047.311566,-5477.523971,-14063.912898,-75383.797003
11047.314130,2516.700203,8142.265362,-76149.892501
11047.316694,4885.359217,-444.123565,-74617.701505
11047.319257,-3849.070898,-296.082377,-77528.864398
11047.321786,148.041188,2516.700203,-73085.510509
11047.324315,-444.123565,-7402.059420,-72319.415011
11047.326844,-9474.636058,-12731.542202,-74770.920605
11047.329373,10214.842000,-1332.370696,-73698.386908
11047.331902,6217.729913,7254.018232,-75690.235202
11047.334431,-21169.889941,6217.729913,-79061.055394
11047.336960,-21317.931130,2072.576638,-76915.987999
11047.339489,-8142.265362,-7105.977043,-74770.920605
11047.342017,-12435.459826,-2516.700203,-74924.139704
11047.344546,7105.977043,10510.924376,-75383.797003
11047.347075,1628.453072,3701.029710,-76762.768900
11047.349604,18209.066173,7846.182985,-74924.139704
11047.352133,26647.413912,19689.478057,-73851.606007
11047.354662,-4145.153275,20725.766376,-74924.139704
11047.357191,-17468.860231,-8586.388927,-75077.358804
11047.359720,15248.242405,-4589.276840,-74158.044206
11047.362249,20873.807564,13027.624579,-75537.016103
11047.364778,-6217.729913,7105.977043,-78294.959896
11047.367307,-7402.059420,1924.535449,-76762.768900
11047.369836,0.000000,19245.354492,-76303.111601
11047.372365,10807.006753,20725.766376,-75077.358804
11047.374894,-15396.283594,15840.407159,-78601.398095
11047.377423,-7550.100608,3552.988522,-75537.016103
11047.379951,-5477.523971,9326.594869,-78448.178995
11047.382480,3552.988522,19541.436869,-76456.330700
11047.385009,-4885.359217,7402.059420,-76149.892501
11047.387538,-888.247130,4293.194464,-77222.426198
11047.390067,13915.871710,12879.583391,-72012.976812
11047.392596,5477.523971,3404.947333,-74924.139704
11047.395125,12731.542202,-888.247130,-74924.139704
11047.397654,12879.583391,18801.230927,-74617.701505
11047.400183,-10510.924376,21465.972318,-76149.892501
11047.402712,-27535.661042,6069.688724,-77375.645298
11047.405241,-23982.672521,-8142.265362,-75537.016103
11047.407770,-1776.494261,3404.947333,-74464.482406
11047.410299,-5921.647536,-11991.336260,-76915.987999
11047.412828,6217.729913,-5625.565159,-75537.016103
11047.415356,8586.388927,16432.571912,-75996.673402
11047.417885,-13323.706956,9178.553681,-75383.797003
11047.420414,-19689.478057,-5181.441594,-74158.044206
11047.422955,5329.482782,-11251.130318,-76609.549800
11047.425495,21465.972318,3997.112087,-75077.358804
11047.428035,-7550.100608,11547.212695,-77988.521696
11047.430575,-26647.413912,9918.759623,-75077.358804
11047.433116,-18209.066173,-4885.359217,-77988.521696
11047.435656,3108.864956,-1184.329507,-77988.521696
11047.438196,-1924.535449,3997.112087,-75996.673402
11047.440737,-15840.407159,-4441.235652,-74924.139704
11047.443277,-5033.400406,-25315.043216,-73085.510509
11047.445817,26795.455100,-3849.070898,-72012.976812
11047.448358,6365.771101,14508.036463,-75230.577904
11047.450898,-21169.889941,-5181.441594,-76762.768900
11047.453438,-16580.613101,-2812.782580,-77835.302597
11047.455979,2812.782580,-1628.453072,-74464.482406
11047.458519,7402.059420,-1628.453072,-74311.263306
11047.461059,1628.453072,1036.288319,-73698.386908
11047.463600,11399.171507,-5477.523971,-76303.111601
11047.466140,26351.331535,13619.789333,-75690.235202
11047.468680,15544.324782,28275.866984,-75077.358804
11047.471221,-20281.642811,7698.141797,-75077.358804
11047.473761,0.000000,-12139.377449,-74464.482406
11047.476301,28719.990550,4145.153275,-73545.167808
11047.478842,2220.617826,18209.066173,-76609.549800
11047.481382,-20133.601622,-6661.853478,-78141.740796
11047.483922,3256.906145,6365.771101,-74617.701505
11047.486463,2368.659014,20281.642811,-78294.959896
11047.489003,-2516.700203,24278.754898,-75843.454302
11047.491543,-24574.837274,4885.359217,-77528.864398
11047.494084,-33013.185013,-4145.153275,-79673.931792
11047.496624,-3701.029710,-1184.329507,-76149.892501
11047.499164,8438.347739,18357.107362,-77375.645298
11047.501705,148.041188,13915.871710,-77222.426198
11047.504245,-11991.336260,9030.512492,-77835.302597
11047.506785,6217.729913,17320.819043,-74158.044206
11047.509326,2220.617826,5773.606348,-75690.235202
11047.511866,6957.935855,-2072.576638,-75383.797003
11047.514406,17024.736666,10658.965565,-74617.701505
11047.516947,3404.947333,27535.661042,-75383.797003
11047.519487,-25018.960840,1036.288319,-77682.083497
11047.522027,-11547.212695,-5625.565159,-74311.263306
11047.524576,-1924.535449,-1184.329507,-73391.948708
11047.527125,-11547.212695,-6365.771101,-76303.111601
11047.529674,-6513.812290,-5329.482782,-77222.426198
11047.532223,14656.077652,10066.800811,-75690.235202
11047.534772,3701.029710,9918.759623,-73391.948708
11047.537321,-21317.931130,148.041188,-74464.482406
11047.539870,-3701.029710,-15248.242405,-75996.673402
11047.542418,20873.807564,7550.100608,-75690.235202
11047.544967,6217.729913,6069.688724,-74617.701505
11047.547516,-296.082377,-17320.819043,-78141.740796
11047.550065,888.247130,46336.891969,-76149.892501
11047.552614,-25018.960840,30052.361245,-80440.027290
11047.555163,-22798.343014,-24870.919651,-74464.482406
11047.557712,-3849.070898,-2664.741391,-73851.606007
11047.560261,0.000000,14656.077652,-72779.072310
11047.562809,-26203.290347,740.205942,-76456.330700
11047.565358,-22946.384202,-1036.288319,-78601.398095
11047.567907,7994.224174,13323.706956,-77375.645298
11047.570456,4293.194464,9326.594869,-77069.207099
11047.573005,-29312.155303,7698.141797,-75230.577904
11047.575554,-26647.413912,-10510.924376,-76303.111601
11047.578103,18357.107362,10807.006753,-73698.386908
11047.580652,6957.935855,9474.636058,-76456.330700
11047.583200,7994.224174,-1924.535449,-76762.768900
11047.585749,28719.990550,23242.466579,-73391.948708
11047.588298,2220.617826,24722.878463,-74464.482406
11047.590847,-10362.883188,6513.812290,-76303.111601
11047.593396,-20577.725188,-4885.359217,-76915.987999
11047.595945,13767.830521,-3404.947333,-75537.016103
11047.598494,11695.253884,16432.571912,-77835.302597
11047.601043,-3849.070898,23094.425390,-74004.825107
11047.603591,-10955.047942,11399.171507,-75996.673402
11047.606140,-3108.864956,10807.006753,-74004.825107
11047.608689,1480.411884,-2960.823768,-76609.549800
11047.611238,-740.205942,14063.912898,-76456.330700
11047.613787,-9474.636058,14359.995275,-77528.864398
11047.616336,592.164754,1776.494261,-78141.740796
11047.618885,13471.748144,17912.983796,-76609.549800
11047.621434,14508.036463,888.247130,-72472.634111
11047.623982,2368.659014,444.123565,-75690.235202
11047.626539,12287.418637,592.164754,-74311.263306
11047.629095,11547.212695,19245.354492,-75537.016103
11047.631651,-10658.965565,19393.395680,-75996.673402
11047.634208,-14656.077652,-9474.636058,-76915.987999
11047.636764,7254.018232,3404.947333,-73698.386908
11047.639320,-444.123565,1924.535449,-74311.263306
11047.641877,-6661.853478,-19097.313304,-77069.207099
11047.644433,-148.041188,6513.812290,-75843.454302
11047.646990,-12435.459826,7402.059420,-77528.864398
11047.649546,-18653.189738,-888.247130,-77069.207099
11047.652102,-2812.782580,5477.523971,-74617.701505
11047.654659,13767.830521,296.082377,-75383.797003
11047.657215,4589.276840,12731.542202,-76303.111601
11047.659771,-14804.118840,-7550.100608,-74311.263306
11047.662328,-592.164754,-29756.278868,-76303.111601
11047.664884,23982.672521,15396.283594,-71859.757712
11047.667440,7105.977043,9918.759623,-74004.825107
11047.669997,8586.388927,-15396.283594,-72319.415011
11047.672553,13175.665768,7254.018232,-72625.853210
11047.675109,-14063.912898,9178.553681,-75383.797003
11047.677666,-38786.791361,-7846.182985,-77222.426198
11047.680222,-10214.842000,-3849.070898,-79061.055394
11047.682778,13767.830521,17764.942608,-75843.454302
11047.685335,11103.089130,14804.118840,-77528.864398
11047.687891,-26055.249158,9770.718434,-75843.454302
11047.690447,-31976.896694,-13619.789333,-76149.892501
11047.693004,17320.819043,8586.388927,-73698.386908
11047.695560,7105.977043,13915.871710,-75843.454302
11047.698116,5033.400406,-1184.329507,-77069.207099
11047.700673,29608.237680,21762.054695,-74004.825107
11047.703229,4885.359217,24722.878463,-73698.386908
11047.705785,-21465.972318,-9474.636058,-74770.920605
11047.708342,10066.800811,-6365.771101,-72932.291410
11047.710898,26351.331535,7550.100608,-75537.016103
11047.713454,-5773.606348,18801.230927,-78294.959896
11047.716011,-6217.729913,6513.812290,-76915.987999
11047.718567,8438.347739,1924.535449,-75077.358804
11047.721123,7698.141797,9770.718434,-74617.701505
11047.723680,4145.153275,-2220.617826,-74158.044206
11047.726236,-4885.359217,1332.370696,-77528.864398
11047.728798,6661.853478,16432.571912,-75230.577904
11047.731359,8734.430116,3849.070898,-75843.454302
11047.733921,296.082377,13767.830521,-77682.083497
11047.736482,0.000000,19985.560434,-75077.358804
11047.739044,-7402.059420,4441.235652,-75383.797003
11047.741605,1480.411884,1036.288319,-74924.139704
11047.744167,21614.013506,7846.182985,-76149.892501
11047.746728,6217.729913,29756.278868,-75383.797003
11047.749290,-14656.077652,6069.688724,-76149.892501
11047.751851,-24870.919651,-7550.100608,-75383.797003
11047.754413,-7550.100608,7254.018232,-75077.358804
11047.756974,-16876.695478,-8734.430116,-77835.302597
11047.759535,-8290.306550,-3849.070898,-76609.549800
11047.762097,9178.553681,7105.977043,-76762.768900
11047.764658,0.000000,10955.047942,-74770.920605
11047.767220,-10807.006753,-6957.935855,-74311.263306
11047.769781,10658.965565,-6513.812290,-74464.482406
11047.772343,10955.047942,16136.489536,-73391.948708
11047.774904,-19097.313304,10066.800811,-79214.274493
11047.777466,-16432.571912,5181.441594,-78754.617194
11047.780027,-25907.207970,29016.072926,-79214.274493
11047.782589,-148.041188,14508.036463,-72932.291410
11047.785150,-11399.171507,-9770.718434,-76609.549800
11047.787712,-16876.695478,-6809.894666,-74770.920605
11047.790273,-592.164754,-6513.812290,-72625.853210
11047.792835,19097.313304,-592.164754,-74004.825107
11047.795396,-3701.029710,4737.318029,-76303.111601
11047.797958,-20429.683999,1184.329507,-78448.178995
11047.800519,-6217.729913,-9622.677246,-75996.673402
11047.803081,11399.171507,5921.647536,-72932.291410
11047.805642,-6809.894666,3108.864956,-75077.358804
11047.808204,-1628.453072,-6217.729913,-76609.549800
11047.810765,20725.766376,11695.253884,-76609.549800
11047.813327,13767.830521,27535.661042,-75230.577904
11047.815888,-13915.871710,7994.224174,-74924.139704
11047.818450,3849.070898,-4145.153275,-75383.797003
11047.821011,15544.324782,17024.736666,-74004.825107
11047.823573,-10955.047942,13767.830521,-76609.549800
11047.826134,-22650.301825,-6957.935855,-78907.836294
11047.828696,9622.677246,17172.777854,-74770.920605
11047.831262,9770.718434,26203.290347,-75690.235202
11047.833828,-26055.249158,34049.473332,-76762.768900
11047.836394,-45596.686027,-444.123565,-78141.740796
11047.838960,-40415.244433,-13471.748144,-79214.274493
11047.841526,740.205942,4737.318029,-77835.302597
11047.844092,23242.466579,46484.933158,-75843.454302
11047.846658,-17616.901420,18209.066173,-77528.864398
11047.849224,-22502.260637,7846.182985,-77069.207099
11047.851790,11547.212695,-1036.288319,-74770.920605
11047.854356,25018.960840,-592.164754,-74004.825107
11047.856922,16284.530724,14952.160028,-74311.263306
11047.859488,-4441.235652,21465.972318,-75383.797003
11047.862053,-13027.624579,1036.288319,-77222.426198
11047.864619,-11695.253884,-2072.576638,-75843.454302
11047.867185,-16876.695478,-3108.864956,-74770.920605
11047.869751,1036.288319,-14359.995275,-75996.673402
11047.872317,4441.235652,1036.288319,-75996.673402
11047.874883,17024.736666,10955.047942,-76149.892501
11047.877449,-740.205942,3256.906145,-75077.358804
11047.880015,-6809.894666,-8142.265362,-74158.044206
11047.882581,8438.347739,5625.565159,-74311.263306
11047.885147,-11843.295072,7846.182985,-78907.836294
11047.887713,-8882.471304,-8142.265362,-74617.701505
11047.890279,5477.523971,-12583.501014,-76456.330700
11047.892845,4293.194464,9178.553681,-73085.510509
11047.895411,-148.041188,-9326.594869,-78448.178995
11047.897977,13471.748144,148.041188,-72319.415011
11047.900543,-9030.512492,-11843.295072,-74617.701505
11047.903109,-29904.320057,-6513.812290,-75383.797003
11047.905675,-16580.613101,-5921.647536,-77528.864398
11047.908241,6809.894666,16876.695478,-75996.673402
11047.910807,-2220.617826,6957.935855,-76762.768900
11047.913373,-23538.548956,-2072.576638,-76609.549800
11047.915939,-3997.112087,-5033.400406,-74464.482406
11047.918505,10362.883188,8882.471304,-74924.139704
11047.921071,3404.947333,-2812.782580,-74924.139704
11047.923637,20133.601622,7698.141797,-76762.768900
11047.926203,13619.789333,30644.525999,-75230.577904
11047.928769,-14656.077652,8882.471304,-76149.892501
11047.931335,-296.082377,3701.029710,-76149.892501
11047.933867,18949.272115,-3404.947333,-72472.634111
11047.936400,10510.924376,13027.624579,-76609.549800
11047.938933,-15988.448347,8586.388927,-78448.178995
11047.941466,-9918.759623,5033.400406,-75537.016103
11047.943999,-2220.617826,11547.212695,-75383.797003
11047.946531,8142.265362,12287.418637,-71706.538613
11047.949064,5033.400406,-5773.606348,-73238.729609
11047.951597,8586.388927,3404.947333,-72012.976812
11047.954130,9474.636058,12435.459826,-75843.454302
11047.956663,1184.329507,14656.077652,-79214.274493
11047.959195,3701.029710,5773.606348,-77835.302597
11047.961728,16580.613101,16580.613101,-74464.482406
11047.964261,-3552.988522,14063.912898,-71859.757712
11047.966794,-2368.659014,8586.388927,-73391.948708
11047.969326,-12731.542202,-11103.089130,-76915.987999
11047.971859,24278.754898,9030.512492,-74770.920605
11047.974392,12879.583391,9474.636058,-75383.797003
11047.976925,-23686.590144,-4737.318029,-76149.892501
11047.979458,-17172.777854,1184.329507,-74924.139704
11047.981990,-18653.189738,-1924.535449,-76762.768900
11047.984523,-19393.395680,-4589.276840,-78601.398095
11047.987056,5181.441594,2220.617826,-76915.987999
11047.989589,8290.306550,13619.789333,-74617.701505
11047.992121,-3256.906145,-5921.647536,-73391.948708
11047.994654,8586.388927,-10066.800811,-74158.044206
11047.997187,22650.301825,-7105.977043,-74004.825107
11047.999720,10510.924376,11991.336260,-77528.864398
11048.002253,-21021.848753,17172.777854,-78907.836294
11048.004785,-12583.501014,2812.782580,-77375.645298
11048.007318,-7994.224174,-2220.617826,-77528.864398
11048.009851,-22354.219448,-13915.871710,-76149.892501
11048.012384,148.041188,-12879.583391,-71706.538613
11048.014917,22946.384202,-3256.906145,-71859.757712
11048.017449,-7550.100608,8882.471304,-76456.330700
11048.019982,-21762.054695,-4145.153275,-77988.521696
11048.022515,-740.205942,-9326.594869,-77069.207099
11048.025048,9474.636058,17912.983796,-73238.729609
11048.027580,-17468.860231,3404.947333,-74464.482406
11048.030113,-4441.235652,-592.164754,-76762.768900
11048.032646,11695.253884,13323.706956,-77222.426198
11048.035189,-1480.411884,18061.024985,-76456.330700
11048.037731,-6513.812290,2368.659014,-75383.797003
11048.040274,18209.066173,19689.478057,-73085.510509
11048.042816,-888.247130,21169.889941,-75383.797003
11048.045359,-21169.889941,-3997.112087,-77069.207099
11048.047902,2220.617826,-5329.482782,-76915.987999
11048.050444,19837.519246,7254.018232,-74770.920605
11048.052987,-2368.659014,15248.242405,-76456.330700
11048.055529,-7402.059420,5773.606348,-72472.634111
11048.058072,18505.148550,-11547.212695,-75843.454302
11048.060615,1628.453072,-2960.823768,-76149.892501
11048.063157,11547.212695,22206.178260,-73851.606007
11048.065700,-148.041188,2960.823768,-77222.426198
11048.068243,10066.800811,-6217.729913,-77222.426198
11048.070785,32124.937883,13027.624579,-74311.263306
11048.073328,6957.935855,15692.365970,-75843.454302
11048.075870,-21021.848753,4737.318029,-74158.044206
11048.078413,-296.082377,-7402.059420,-75230.577904
11048.080956,31236.690752,26351.331535,-75077.358804
11048.083498,-11547.212695,2960.823768,-77988.521696
11048.086041,-24574.837274,-11103.089130,-75383.797003
11048.088583,1480.411884,3701.029710,-73545.167808
11048.091126,-10066.800811,7105.977043,-76303.111601
11048.093669,-19985.560434,-3108.864956,-78601.398095
11048.096211,-3552.988522,-3108.864956,-76456.330700
11048.098754,6069.688724,9326.594869,-74770.920605
11048.101296,2220.617826,-4885.359217,-73391.948708
11048.103839,10214.842000,-3552.988522,-74617.701505
11048.106382,7698.141797,-888.247130,-73851.606007
11048.108924,-3256.906145,-19245.354492,-75690.235202
11048.111467,7846.182985,1480.411884,-73085.510509
11048.114010,9918.759623,2368.659014,-75843.454302
11048.116552,17172.777854,6957.935855,-71246.881314
11048.119095,-11843.295072,3108.864956,-73238.729609
11048.121637,-22502.260637,-444.123565,-75690.235202
11048.124180,-19393.395680,-5921.647536,-77528.864398
11048.126723,444.123565,17320.819043,-77069.207099
11048.129265,-8142.265362,7994.224174,-77222.426198
11048.131808,-23686.590144,-7105.977043,-76915.987999
11048.134350,6217.729913,-2072.576638,-72779.072310
11048.136902,19541.436869,4145.153275,-72779.072310
11048.139453,5033.400406,-1480.411884,-75843.454302
11048.142004,8142.265362,11695.253884,-77222.426198
11048.144555,3552.988522,23094.425390,-75690.235202
11048.147106,-6365.771101,6365.771101,-75537.016103
11048.149657,7698.141797,13767.830521,-74311.263306
11048.152208,-2072.576638,20429.683999,-74924.139704
11048.154760,-17764.942608,12287.418637,-76303.111601
11048.157311,-10955.047942,0.000000,-78294.959896
11048.159862,8142.265362,2812.782580,-74311.263306
11048.162413,15100.201217,-1184.329507,-75230.577904
11048.164964,9770.718434,14656.077652,-72319.415011
11048.167515,7698.141797,-148.041188,-71400.100414
11048.170066,3256.906145,-6217.729913,-75996.673402
11048.172618,9178.553681,22354.219448,-75077.358804
11048.175169,740.205942,1628.453072,-78141.740796
11048.177720,-1480.411884,13767.830521,-77375.645298
11048.180271,7105.977043,1776.494261,-75077.358804
11048.182822,17764.942608,5329.482782,-75077.358804
11048.185373,16432.571912,13915.871710,-72166.195912
11048.187924,4589.276840,17024.736666,-76609.549800
11048.190476,-16728.654289,740.205942,-77682.083497
11048.193027,1924.535449,-4293.194464,-75537.016103
11048.195578,-888.247130,5773.606348,-73085.510509
11048.198129,-18061.024985,-12879.583391,-76915.987999
11048.200680,-10658.965565,1036.288319,-75996.673402
11048.203231,-5773.606348,10510.924376,-76762.768900
11048.205782,-6513.812290,-2812.782580,-77069.207099
11048.208334,-5625.565159,5773.606348,-74770.920605
11048.210885,-7105.977043,-5181.441594,-73698.386908
11048.213436,7254.018232,-21169.889941,-75843.454302
11048.215987,31236.690752,-2960.823768,-72625.853210
11048.218538,27683.702231,4293.194464,-75690.235202
11048.221089,19985.560434,16580.613101,-75383.797003
11048.223640,296.082377,18653.189738,-75843.454302
11048.226191,-27387.619854,-3997.112087,-74770.920605
11048.228743,-20133.601622,-22354.219448,-74158.044206
11048.231294,14211.954086,2368.659014,-73851.606007
11048.233845,1480.411884,22058.137072,-74311.263306
11048.236396,-22798.343014,-7698.141797,-78601.398095
11048.238953,2072.576638,-10066.800811,-78448.178995
11048.241511,15988.448347,13767.830521,-73391.948708
11048.244068,-23390.507767,-2516.700203,-75843.454302
11048.246625,-17616.901420,3997.112087,-75690.235202
11048.249183,11547.212695,16284.530724,-77375.645298
11048.251740,6957.935855,18209.066173,-76303.111601
11048.254297,1924.535449,3997.112087,-75537.016103
11048.256855,9918.759623,21021.848753,-73085.510509
11048.259412,-5181.441594,11991.336260,-74004.825107
11048.261969,-11991.336260,-2664.741391,-75996.673402
11048.264527,8882.471304,-592.164754,-77069.207099
11048.267084,9326.594869,10510.924376,-75230.577904
11048.269641,-13471.748144,148.041188,-75383.797003
11048.272199,14211.954086,3701.029710,-70940.443115
11048.274756,23982.672521,10510.924376,-69714.690318
11048.277313,9178.553681,3552.988522,-70940.443115
11048.279871,4441.235652,2220.617826,-77528.864398
11048.282428,10658.965565,12583.501014,-77069.207099
11048.284985,5921.647536,34493.596897,-79673.931792
11048.287543,-4885.359217,7698.141797,-76303.111601
11048.290100,1628.453072,-3108.864956,-73391.948708
11048.292657,17764.942608,18653.189738,-71553.319513
11048.295215,-4737.318029,14952.160028,-75230.577904
11048.297772,-10362.883188,-5625.565159,-79061.055394
11048.300329,16432.571912,-740.205942,-75383.797003
11048.302887,1924.535449,3701.029710,-74004.825107
11048.305444,-16136.489536,-9030.512492,-76303.111601
11048.308001,-19393.395680,6809.894666,-76149.892501
11048.310559,-20725.766376,5921.647536,-77528.864398
11048.313116,-8882.471304,592.164754,-77069.207099
11048.315673,-8882.471304,3256.906145,-75537.016103
11048.318231,-6809.894666,-8882.471304,-74464.482406
11048.320788,5329.482782,-1776.494261,-74770.920605
11048.323346,12139.377449,17172.777854,-72472.634111
11048.325903,-9918.759623,4441.235652,-77682.083497
11048.328460,-23686.590144,10214.842000,-80440.027290
11048.331018,7105.977043,7402.059420,-74924.139704
11048.333575,1924.535449,3701.029710,-74924.139704
11048.336132,-26795.455100,10807.006753,-74770.920605
11048.338690,-24870.919651,-13027.624579,-75537.016103
11048.341252,1332.370696,5625.565159,-76303.111601
11048.343815,6365.771101,8734.430116,-75383.797003
11048.346378,-17468.860231,-5773.606348,-79520.712692
11048.348940,148.041188,1924.535449,-73698.386908
11048.351503,11991.336260,-1480.411884,-72472.634111
11048.354066,4737.318029,1924.535449,-74924.139704
11048.356629,8142.265362,11991.336260,-77835.302597
11048.359191,1628.453072,17320.819043,-76915.987999
11048.361754,-3256.906145,9474.636058,-75690.235202
11048.364317,15248.242405,16284.530724,-72779.072310
11048.366880,-3997.112087,16284.530724,-74464.482406
11048.369442,-19541.436869,-2812.782580,-77222.426198
11048.372005,3552.988522,-2812.782580,-77222.426198
11048.374568,7402.059420,14508.036463,-79980.369991
11048.377130,13767.830521,-740.205942,-76915.987999
11048.379693,4589.276840,24870.919651,-72166.195912
11048.382256,-10510.924376,4441.235652,-73085.510509
11048.384819,-9326.594869,-4885.359217,-75690.235202
11048.387381,5477.523971,14508.036463,-77988.521696
11048.389944,11991.336260,7105.977043,-79367.493593
11048.392507,7550.100608,21169.889941,-78294.959896
11048.395070,1036.288319,9622.677246,-74617.701505
11048.397632,-1924.535449,-1776.494261,-72472.634111
11048.400195,16432.571912,2072.576638,-72779.072310
11048.402758,11695.253884,21910.095883,-76456.330700
11048.405321,-21021.848753,6217.729913,-79520.712692
11048.407883,-20873.807564,-5181.441594,-76149.892501
11048.410446,-10066.800811,4441.235652,-74617.701505
11048.413009,-22058.137072,-2960.823768,-76149.892501
11048.415571,-20281.642811,-6365.771101,-76762.768900
11048.418134,9474.636058,7402.059420,-76915.987999
11048.420697,7105.977043,12139.377449,-76915.987999
11048.423260,-4441.235652,2072.576638,-75383.797003
11048.425822,-12287.418637,-4441.235652,-72932.291410
11048.428385,-10955.047942,-2220.617826,-74464.482406
11048.430948,6513.812290,1184.329507,-73545.167808
11048.433511,3256.906145,13323.706956,-75537.016103
11048.436073,592.164754,12879.583391,-78294.959896
11048.438636,-3256.906145,3552.988522,-75996.673402
11048.441199,-33457.308578,-1924.535449,-75537.016103
11048.443764,-16580.613101,-10214.842000,-74158.044206
11048.446331,6809.894666,14804.118840,-74158.044206
11048.448897,-8438.347739,3256.906145,-77222.426198
11048.451463,-7698.141797,-4441.235652,-78907.836294
11048.454029,0.000000,12583.501014,-77375.645298
11048.456595,-22354.219448,-148.041188,-74617.701505
11048.459162,-17468.860231,1776.494261,-74311.263306
11048.461728,3108.864956,12879.583391,-75537.016103
11048.464294,16580.613101,8142.265362,-77222.426198
11048.466860,28127.825796,17172.777854,-75690.235202
11048.469426,15840.407159,16580.613101,-72779.072310
11048.471993,-4737.318029,-1924.535449,-73391.948708
11048.474559,-2220.617826,-5773.606348,-74464.482406
11048.477125,14359.995275,3404.947333,-76303.111601
11048.479691,5477.523971,6365.771101,-76762.768900
11048.482257,-5329.482782,-1776.494261,-78754.617194
11048.484823,7994.224174,12435.459826,-73391.948708
11048.487390,16728.654289,2220.617826,-70940.443115
11048.489956,3108.864956,2516.700203,-74617.701505
11048.492522,-4589.276840,17024.736666,-75230.577904
11048.495088,7254.018232,-4589.276840,-77375.645298
11048.497654,21762.054695,26647.413912,-78141.740796
11048.500221,-6217.729913,15544.324782,-77222.426198
11048.502787,-19837.519246,-3701.029710,-76149.892501
11048.505353,6365.771101,-1924.535449,-71400.100414
11048.507919,25167.002028,19393.395680,-75077.358804
11048.510485,-17320.819043,9474.636058,-79367.493593
11048.513052,-21910.095883,-13767.830521,-76456.330700
11048.515618,6957.935855,3108.864956,-72166.195912
11048.518184,-7550.100608,-1036.288319,-74617.701505
11048.520750,-15544.324782,-4737.318029,-76149.892501
11048.523316,-1184.329507,9030.512492,-77375.645298
11048.525883,1036.288319,8586.388927,-76915.987999
11048.528449,-4737.318029,4441.235652,-75690.235202
11048.531015,-5921.647536,-11547.212695,-75383.797003
11048.533581,15100.201217,888.247130,-74311.263306
11048.536147,29164.114115,1184.329507,-74311.263306
11048.538714,2072.576638,18357.107362,-75230.577904
11048.541280,-8734.430116,-22058.137072,-77835.302597
11048.543846,15840.407159,-6217.729913,-73238.729609
11048.546415,3552.988522,6513.812290,-71093.662214
11048.548985,-27979.784608,-15544.324782,-73698.386908
11048.551554,-19689.478057,-2220.617826,-75843.454302
11048.554123,4441.235652,8586.388927,-76303.111601
11048.556693,4293.194464,1036.288319,-79367.493593
11048.559262,-12731.542202,11843.295072,-77835.302597
11048.561831,-21317.931130,-4145.153275,-74770.920605
11048.564401,4145.153275,5625.565159,-73085.510509
11048.566970,16136.489536,18653.189738,-75077.358804
11048.569539,-5921.647536,12583.501014,-79061.055394
11048.572109,-740.205942,6661.853478,-76456.330700
11048.574678,25907.207970,19985.560434,-70940.443115
11048.577248,-3701.029710,2220.617826,-73851.606007
11048.579817,-8734.430116,-7994.224174,-74924.139704
11048.582386,15100.201217,-2960.823768,-75077.358804
11048.584956,1776.494261,23686.590144,-79980.369991
11048.587525,-11103.089130,29164.114115,-77069.207099
11048.590094,-26795.455100,11991.336260,-77375.645298
11048.592664,-19689.478057,8142.265362,-75690.235202
11048.595233,-21465.972318,3997.112087,-76149.892501
11048.597802,-8438.347739,15692.365970,-75690.235202
11048.600372,4145.153275,20281.642811,-77835.302597
11048.602941,9770.718434,-3404.947333,-79520.712692
11048.605510,29904.320057,9918.759623,-72166.195912
11048.608080,9622.677246,13027.624579,-72166.195912
11048.610649,-2220.617826,-6957.935855,-72779.072310
11048.613219,17024.736666,5181.441594,-74464.482406
11048.615788,-592.164754,13027.624579,-77988.521696
11048.618357,-27683.702231,-2220.617826,-78141.740796
11048.620927,-12287.418637,-3997.112087,-75077.358804
11048.623496,-12139.377449,4441.235652,-74158.044206
11048.626065,-19393.395680,-5181.441594,-76762.768900
11048.628635,4885.359217,-2960.823768,-77375.645298
11048.631204,6217.729913,7550.100608,-76609.549800
11048.633773,-2664.741391,444.123565,-75690.235202
11048.636343,-9030.512492,-3552.988522,-74770.920605
11048.638912,2960.823768,4885.359217,-75996.673402
11048.641481,-16284.530724,24870.919651,-75230.577904
11048.644051,-32865.143825,-4441.235652,-80440.027290
11048.646620,2812.782580,-9326.594869,-78294.959896
11048.649191,6957.935855,15396.283594,-76456.330700
11048.651762,-13619.789333,-1332.370696,-73698.386908
11048.654333,-20133.601622,-6365.771101,-71859.757712
11048.656904,-5181.441594,1480.411884,-73851.606007
11048.659475,3701.029710,12287.418637,-76456.330700
11048.662046,-14063.912898,18357.107362,-79980.369991
11048.664617,-33457.308578,-5181.441594,-77528.864398
11048.667188,-888.247130,1184.329507,-72319.415011
11048.669759,13915.871710,8142.265362,-72932.291410
11048.672330,17764.942608,5033.400406,-76149.892501
11048.674901,22058.137072,19245.354492,-76609.549800
11048.677472,7994.224174,17764.942608,-75230.577904
11048.680043,2516.700203,148.041188,-75383.797003
11048.682614,-1628.453072,17912.983796,-74464.482406
11048.685185,-13175.665768,7105.977043,-76609.549800
11048.687757,-7105.977043,6957.935855,-76762.768900
11048.690328,9918.759623,21021.848753,-76762.768900
11048.692899,2812.782580,7105.977043,-77069.207099
11048.695470,4293.194464,2960.823768,-71093.662214
11048.698041,888.247130,-592.164754,-72472.634111
11048.700612,5329.482782,17764.942608,-72779.072310
11048.703183,10955.047942,-3849.070898,-77222.426198
11048.705754,27831.743419,1184.329507,-78141.740796
11048.708325,19837.519246,13619.789333,-75537.016103
11048.710896,-12435.459826,6661.853478,-75996.673402
11048.713467,-3256.906145,1628.453072,-72319.415011
11048.716038,13027.624579,15396.283594,-73698.386908
11048.718609,-12583.501014,7402.059420,-78601.398095
11048.721180,-16728.654289,-4441.235652,-78448.178995
11048.723751,-1628.453072,2220.617826,-75077.358804
11048.726322,-22354.219448,0.000000,-74924.139704
11048.728893,-16580.613101,-10807.006753,-75383.797003
11048.731464,9326.594869,7105.977043,-76149.892501
11048.734035,7550.100608,10658.965565,-76149.892501
11048.736606,-6809.894666,-296.082377,-76303.111601
11048.739177,-6809.894666,-7402.059420,-76609.549800
11048.741748,444.123565,6217.729913,-73391.948708
11048.744319,-2072.576638,2516.700203,-76456.330700
11048.746890,-7994.224174,3849.070898,-79520.712692
11048.749461,-3552.988522,12731.542202,-78141.740796
11048.752034,-2368.659014,-8438.347739,-77375.645298
11048.754606,-11103.089130,-3849.070898,-72472.634111
11048.757179,-10658.965565,-17616.901420,-72012.976812
11048.759751,-6217.729913,8438.347739,-74158.044206
11048.762324,-2960.823768,14508.036463,-77682.083497
11048.764896,-22798.343014,10955.047942,-80593.246390
11048.767469,-31828.855506,-2812.782580,-77988.521696
11048.770041,3404.947333,888.247130,-73698.386908
11048.772614,8290.306550,9326.594869,-71859.757712
11048.775186,13619.789333,5181.441594,-74464.482406
11048.777759,28868.031738,14804.118840,-75996.673402
11048.780331,13915.871710,18505.148550,-75230.577904
11048.782904,-148.041188,6365.771101,-76915.987999
11048.785476,-7698.141797,22798.343014,-73851.606007
11048.788049,-20873.807564,3997.112087,-76915.987999
11048.790621,-2220.617826,5477.523971,-75383.797003
11048.793194,-11991.336260,9474.636058,-78294.959896
11048.795766,7402.059420,7105.977043,-76149.892501
11048.798339,6217.729913,20577.725188,-74311.263306
11048.800911,-6513.812290,12583.501014,-74158.044206
11048.803484,-11399.171507,3997.112087,-75077.358804
11048.806056,10510.924376,5625.565159,-76303.111601
11048.808629,29608.237680,4589.276840,-79367.493593
11048.811201,24278.754898,17764.942608,-75996.673402
11048.813774,-11991.336260,9770.718434,-76456.330700
11048.816346,-3552.988522,-5329.482782,-72012.976812
11048.818919,21021.848753,14656.077652,-72932.291410
11048.821491,10066.800811,13027.624579,-76762.768900
11048.824064,-28423.908173,740.205942,-78754.617194
11048.826636,-21614.013506,-3849.070898,-76609.549800
11048.829209,-14211.954086,3849.070898,-74158.044206
11048.831781,-19245.354492,-148.041188,-76609.549800
11048.834355,-3552.988522,1480.411884,-77528.864398
11048.836928,4145.153275,6957.935855,-77069.207099
11048.839501,-5625.565159,2220.617826,-75077.358804
11048.842075,-6809.894666,-592.164754,-75383.797003
11048.844648,-4885.359217,7254.018232,-72472.634111
11048.847221,-4145.153275,148.041188,-76456.330700
11048.849795,-15248.242405,11695.253884,-81972.218286
11048.852368,-4145.153275,11695.253884,-79214.274493
11048.854941,-12435.459826,5625.565159,-75383.797003
11048.857514,-16284.530724,-4145.153275,-72319.415011
11048.860088,-2516.700203,-7402.059420,-70940.443115
11048.862661,-12879.583391,8142.265362,-75996.673402
11048.865234,-592.164754,-8882.471304,-78448.178995
11048.867808,7994.224174,6957.935855,-77988.521696
11048.870381,-16580.613101,9474.636058,-75537.016103
11048.872954,-17616.901420,-2812.782580,-74311.263306
11048.875527,2664.741391,19393.395680,-73085.510509
11048.878101,6513.812290,5921.647536,-76762.768900
11048.880674,16876.695478,12879.583391,-76762.768900
11048.883247,21169.889941,19837.519246,-74617.701505
11048.885821,444.123565,-5329.482782,-74158.044206
11048.888394,-4885.359217,-2220.617826,-73238.729609
11048.890967,13619.789333,-444.123565,-76609.549800
11048.893541,-7105.977043,18209.066173,-78754.617194
11048.896114,-13619.789333,-3256.906145,-76456.330700
11048.898687,19393.395680,4293.194464,-74004.825107
11048.901260,17320.819043,35085.761651,-70480.785816
11048.903834,-10214.842000,3849.070898,-74311.263306
11048.906407,-5033.400406,3997.112087,-76149.892501
11048.908980,32124.937883,19985.560434,-77375.645298
11048.911554,18653.189738,14804.118840,-77682.083497
11048.914127,-11843.295072,3552.988522,-75383.797003
11048.916700,-12583.501014,-2664.741391,-73545.167808
11048.919273,13619.789333,21465.972318,-72932.291410
11048.921847,-8290.306550,6217.729913,-77375.645298
11048.924420,-16876.695478,-7550.100608,-78141.740796
11048.926993,-1924.535449,2960.823768,-76149.892501
11048.929567,-6957.935855,-4885.359217,-75690.235202
11048.932140,-11103.089130,1924.535449,-74617.701505
11048.934713,-10658.965565,5033.400406,-76609.549800
11048.937287,2960.823768,296.082377,-76456.330700
11048.939861,1924.535449,4293.194464,-76915.987999
11048.942435,-1924.535449,5477.523971,-74311.263306
11048.945009,1036.288319,6809.894666,-73545.167808
11048.947584,-14656.077652,8882.471304,-76762.768900
11048.950158,5329.482782,-296.082377,-74770.920605
11048.952732,4737.318029,1776.494261,-79367.493593
11048.955306,-1480.411884,-1480.411884,-74464.482406
11048.957880,-11695.253884,-8290.306550,-71553.319513
11048.960454,-5625.565159,-12287.418637,-70480.785816
11048.963028,-6661.853478,4885.359217,-73085.510509
11048.965602,-2960.823768,5625.565159,-78907.836294
11048.968176,-12287.418637,9918.759623,-80133.589091
11048.970750,-26055.249158,-3701.029710,-78141.740796
11048.973324,1628.453072,6513.812290,-73851.606007
11048.975898,296.082377,14804.118840,-73085.510509
11048.978472,7105.977043,4145.153275,-78294.959896
11048.981046,11991.336260,9474.636058,-77069.207099
11048.983620,27387.619854,16284.530724,-74770.920605
11048.986194,14508.036463,-7402.059420,-73851.606007
11048.988769,3404.947333,5625.565159,-73238.729609
11048.991343,6957.935855,9918.759623,-73698.386908
11048.993917,-4293.194464,6809.894666,-79827.150892
11048.996491,-7698.141797,26647.413912,-77375.645298
11048.999065,-11251.130318,-6069.688724,-75690.235202
11049.001639,5033.400406,-888.247130,-72779.072310
11049.004213,8586.388927,19245.354492,-71400.100414
11049.006787,-592.164754,7105.977043,-76456.330700
11049.009361,9030.512492,20725.766376,-78754.617194
11049.011935,888.247130,10807.006753,-77375.645298
11049.014509,2812.782580,8586.388927,-74617.701505
11049.017083,-2220.617826,-1184.329507,-73238.729609
11049.019657,2812.782580,24870.919651,-73085.510509
11049.022231,-17172.777854,-1924.535449,-77069.207099
11049.024805,-1332.370696,-5181.441594,-77528.864398
11049.027379,6809.894666,2072.576638,-76609.549800
11049.029954,-11103.089130,-12287.418637,-76762.768900
11049.032528,-10510.924376,3404.947333,-74464.482406
11049.035102,-12879.583391,10807.006753,-75383.797003
11049.037676,-1332.370696,-1628.453072,-76762.768900
11049.040216,3701.029710,-3256.906145,-74464.482406
11049.042757,2368.659014,3701.029710,-74770.920605
11049.045297,-5477.523971,19097.313304,-72625.853210
11049.047838,-13767.830521,2960.823768,-77528.864398
11049.050379,-19837.519246,7846.182985,-82278.656485
11049.052919,-9326.594869,10066.800811,-79520.712692
11049.055460,-10510.924376,-10362.883188,-78754.617194
11049.058000,-8882.471304,6513.812290,-72319.415011
11049.060541,-6661.853478,-1332.370696,-70634.004916
11049.063082,-12435.459826,-2220.617826,-75996.673402
11049.065622,4737.318029,-3256.906145,-77375.645298
11049.068163,-296.082377,10955.047942,-79827.150892
11049.070703,-26795.455100,7698.141797,-77375.645298
11049.073244,-10066.800811,-592.164754,-74464.482406
11049.075785,4589.276840,19837.519246,-73545.167808
11049.078325,-3849.070898,11843.295072,-76762.768900
11049.080866,1924.535449,5181.441594,-77835.302597
11049.083406,23390.507767,18949.272115,-74770.920605
11049.085947,13471.748144,-9474.636058,-73238.729609
11049.088488,-888.247130,296.082377,-72779.072310
11049.091028,10510.924376,1480.411884,-75843.454302
11049.093569,-8734.430116,9474.636058,-79214.274493
11049.096109,-8734.430116,1480.411884,-75996.673402
11049.098650,18801.230927,-13767.830521,-75077.358804
11049.101191,15840.407159,31828.855506,-71553.319513
11049.103731,-3997.112087,16136.489536,-73085.510509
11049.106272,-13471.748144,26351.331535,-78294.959896
11049.108812,-7254.018232,-8586.388927,-79827.150892
11049.111353,25167.002028,1628.453072,-77682.083497
11049.113893,16876.695478,29016.072926,-75537.016103
11049.116434,-9030.512492,-3404.947333,-72319.415011
11049.118975,14656.077652,2812.782580,-72319.415011
11049.121515,16580.613101,13323.706956,-75077.358804
11049.124056,-29016.072926,-3849.070898,-79214.274493
11049.126596,-29164.114115,-296.082377,-78601.398095
11049.129137,-16580.613101,740.205942,-75537.016103
11049.131678,-7994.224174,-2664.741391,-74924.139704
11049.134218,2072.576638,4441.235652,-75996.673402
11049.136759,888.247130,4293.194464,-77069.207099
11049.139299,-8290.306550,740.205942,-73545.167808
11049.141847,-8438.347739,7698.141797,-75383.797003
11049.144394,-5181.441594,17024.736666,-72779.072310
11049.146941,-23094.425390,2664.741391,-78141.740796
11049.149488,-10658.965565,-2664.741391,-79061.055394
11049.152035,-5329.482782,3849.070898,-79367.493593
11049.154582,-8734.430116,14804.118840,-75996.673402
11049.157129,-18949.272115,-1628.453072,-72012.976812
11049.159676,-18801.230927,-740.205942,-75383.797003
11049.162223,-5477.523971,16432.571912,-76456.330700
11049.164770,-25167.002028,148.041188,-80440.027290
11049.167318,-13175.665768,-7994.224174,-78141.740796
11049.169865,-6365.771101,3256.906145,-73698.386908
11049.172412,4441.235652,8438.347739,-72472.634111
11049.174959,18209.066173,7846.182985,-73391.948708
11049.177506,30496.484810,14508.036463,-75383.797003
11049.180053,13767.830521,15100.201217,-76149.892501
11049.182600,-1036.288319,10658.965565,-76303.111601
11049.185147,-7550.100608,18209.066173,-74004.825107
11049.187694,-17616.901420,-740.205942,-75843.454302
11049.190241,0.000000,11843.295072,-79061.055394
11049.192789,-15100.201217,28868.031738,-79827.150892
11049.195336,-6957.935855,-5477.523971,-75690.235202
11049.197883,16728.654289,9178.553681,-70787.224015
11049.200430,9622.677246,29164.114115,-70480.785816
11049.202977,148.041188,12879.583391,-75537.016103
11049.205524,12287.418637,-1924.535449,-78448.178995
11049.208071,37158.338288,11695.253884,-76915.987999
11049.210618,14508.036463,16728.654289,-75383.797003
11049.213165,-11251.130318,-592.164754,-74464.482406
11049.215712,-2812.782580,18209.066173,-73391.948708
11049.218260,-10066.800811,3849.070898,-76303.111601
11049.220807,-6661.853478,-4737.318029,-77528.864398
11049.223354,-6217.729913,1480.411884,-76915.987999
11049.225901,-13027.624579,-9326.594869,-76609.549800
11049.228448,-3849.070898,2072.576638,-74770.920605
11049.230995,-8290.306550,12435.459826,-75077.358804
11049.233542,4441.235652,6069.688724,-77835.302597
11049.236089,-12139.377449,-3552.988522,-76915.987999
11049.238636,0.000000,-9474.636058,-74770.920605
11049.241184,1332.370696,20133.601622,-75537.016103
11049.243736,-22650.301825,8882.471304,-80440.027290
11049.246289,-18949.272115,1332.370696,-80133.589091
11049.248841,-13323.706956,3256.906145,-80133.589091
11049.251394,-12287.418637,5773.606348,-75230.577904
11049.253947,-16284.530724,592.164754,-71553.319513
11049.256499,-11695.253884,-3108.864956,-74004.825107
11049.259052,-10955.047942,9918.759623,-76303.111601
11049.261604,-21465.972318,-2664.741391,-79827.150892
11049.264157,-21465.972318,-5181.441594,-79214.274493
11049.266710,9030.512492,8142.265362,-74617.701505
11049.269262,6217.729913,4589.276840,-72166.195912
11049.271815,10658.965565,3997.112087,-73545.167808
11049.274367,27239.578666,18209.066173,-75537.016103
11049.276920,9178.553681,15692.365970,-76609.549800
11049.279473,-1036.288319,13619.789333,-76149.892501
11049.282025,-16284.530724,8290.306550,-74924.139704
11049.284578,-18357.107362,-1480.411884,-75690.235202
11049.287131,21465.972318,-2516.700203,-75383.797003
11049.289683,11399.171507,7846.182985,-79673.931792
11049.292236,-1480.411884,20429.683999,-75383.797003
11049.294788,-9622.677246,2220.617826,-73545.167808
11049.297341,-10807.006753,3849.070898,-73391.948708
11049.299894,-4885.359217,8734.430116,-76303.111601
11049.302446,15988.448347,6809.894666,-77988.521696
11049.304999,37158.338288,11695.253884,-75996.673402
11049.307551,6661.853478,16432.571912,-74311.263306
11049.310104,-4293.194464,-6217.729913,-73851.606007
11049.312657,18505.148550,11843.295072,-72779.072310
11049.315209,-3997.112087,6661.853478,-76915.987999
11049.317762,-24426.796086,-3849.070898,-77528.864398
11049.320314,-13619.789333,2812.782580,-76609.549800
11049.322867,-13175.665768,-8586.388927,-76456.330700
11049.325420,-4293.194464,-2960.823768,-74924.139704
11049.327972,4293.194464,2664.741391,-75537.016103
11049.330525,296.082377,8438.347739,-78907.836294
11049.333078,-9918.759623,-2812.782580,-74311.263306
11049.335630,-7402.059420,4441.235652,-75230.577904
11049.338183,-5329.482782,20133.601622,-73391.948708
11049.340735,-29016.072926,5773.606348,-78907.836294
11049.343288,-12731.542202,-7254.018232,-80440.027290
11049.345812,-1184.329507,7698.141797,-79214.274493
11049.348336,-9474.636058,16580.613101,-74770.920605
11049.350861,-23982.672521,-7846.182985,-72625.853210
11049.353385,-11251.130318,1332.370696,-73851.606007
11049.355909,4885.359217,16876.695478,-76762.768900
11049.358433,-26795.455100,12139.377449,-78141.740796
11049.360957,-39526.997303,0.000000,-78601.398095
11049.363482,-17468.860231,2516.700203,-75996.673402
11049.366006,5921.647536,17764.942608,-73698.386908
11049.368530,4885.359217,6069.688724,-75690.235202
11049.371054,20281.642811,7402.059420,-75690.235202
11049.373578,29460.196492,16284.530724,-74464.482406
11049.376103,13767.830521,8586.388927,-75996.673402
11049.378627,4293.194464,20429.683999,-71246.881314
11049.381151,-11991.336260,740.205942,-75843.454302
11049.383675,16580.613101,-3701.029710,-77528.864398
11049.386200,10807.006753,19245.354492,-78907.836294
11049.388724,-16284.530724,24130.713709,-73698.386908
11049.391248,-3997.112087,26499.372724,-69255.033019
11049.393772,-5329.482782,-9622.677246,-72779.072310
11049.396296,30348.443622,20281.642811,-76456.330700
11049.398821,6365.771101,30052.361245,-83197.971083
11049.401345,-16432.571912,2072.576638,-77682.083497
11049.403869,7402.059420,1332.370696,-71400.100414
11049.406393,23834.631332,9622.677246,-69867.909418
11049.408917,8438.347739,-296.082377,-74617.701505
11049.411442,-2516.700203,2516.700203,-76149.892501
11049.413966,-7698.141797,-5625.565159,-77222.426198
11049.416490,-1184.329507,-3701.029710,-77222.426198
11049.419014,-21465.972318,8142.265362,-76762.768900
11049.421539,-36122.049970,-888.247130,-76762.768900
11049.424063,-740.205942,-4737.318029,-76915.987999
11049.426587,5625.565159,10066.800811,-75843.454302
11049.429111,-7105.977043,10955.047942,-74464.482406
11049.431635,-3701.029710,6069.688724,-71246.881314
11049.434160,-4737.318029,-2664.741391,-75077.358804
11049.436684,-8882.471304,6069.688724,-81818.999186
11049.439208,-3256.906145,12435.459826,-79827.150892
11049.441732,-10955.047942,-13619.789333,-77222.426198
11049.444256,-8882.471304,0.000000,-71400.100414
11049.446791,-12139.377449,9178.553681,-72932.291410
11049.449326,-22650.301825,6217.729913,-77528.864398
11049.451860,-18209.066173,-7402.059420,-80440.027290
11049.454395,-17764.942608,-8438.347739,-78907.836294
11049.456930,5329.482782,15248.242405,-74004.825107
11049.459464,1184.329507,0.000000,-73851.606007
11049.461999,16136.489536,6513.812290,-73698.386908
11049.464533,27239.578666,20725.766376,-74464.482406
11049.467068,148.041188,12879.583391,-77375.645298
11049.469603,-4293.194464,12139.377449,-76303.111601
11049.472137,-17764.942608,-4441.235652,-75383.797003
11049.474672,-13471.748144,3701.029710,-74924.139704
11049.477206,17024.736666,8290.306550,-74617.701505
11049.479741,3108.864956,-1924.535449,-80440.027290
11049.482276,9178.553681,16580.613101,-72779.072310
11049.484810,2220.617826,9918.759623,-70174.347617
11049.487345,-9326.594869,11843.295072,-74617.701505
11049.489879,1480.411884,16284.530724,-78754.617194
11049.492414,4589.276840,23834.631332,-81512.560987
11049.494949,-148.041188,5773.606348,-79827.150892
11049.497483,8882.471304,13915.871710,-74464.482406
11049.500018,6069.688724,1184.329507,-72166.195912
11049.502553,22650.301825,-148.041188,-72779.072310
11049.505087,7994.224174,6217.729913,-75383.797003
11049.507622,-21762.054695,-5329.482782,-77988.521696
11049.510156,-15692.365970,-1924.535449,-78601.398095
11049.512691,-28423.908173,7254.018232,-77988.521696
11049.515226,-27091.537477,-4589.276840,-76149.892501
11049.517760,-2960.823768,-2516.700203,-78141.740796
11049.520295,7105.977043,6069.688724,-75537.016103
11049.522829,-8438.347739,-4589.276840,-75690.235202
11049.525364,-592.164754,-12139.377449,-72319.415011
11049.527899,12731.542202,-5921.647536,-75230.577904
11049.530433,15840.407159,7254.018232,-75077.358804
11049.532968,-7698.141797,7105.977043,-81665.780087
11049.535502,-14952.160028,-5625.565159,-75537.016103
11049.538037,-3849.070898,-11843.295072,-70174.347617
11049.540572,-3552.988522,5181.441594,-71400.100414
11049.543106,-25759.166782,8734.430116,-75843.454302
11049.545641,-19985.560434,-12287.418637,-78448.178995
11049.548184,-12731.542202,-4737.318029,-77682.083497
11049.550727,17764.942608,6809.894666,-74004.825107
11049.553271,7550.100608,-1036.288319,-73085.510509
11049.555814,17024.736666,6365.771101,-73391.948708
11049.558357,25759.166782,24426.796086,-73851.606007
11049.560901,-4145.153275,10955.047942,-77988.521696
11049.563444,-5921.647536,5921.647536,-76303.111601
11049.565987,-16432.571912,-4737.318029,-75537.016103
11049.568531,-11547.212695,5033.400406,-74158.044206
11049.571074,16284.530724,5773.606348,-79214.274493
11049.573617,26351.331535,27683.702231,-76915.987999
11049.576161,3404.947333,-5773.606348,-75230.577904
11049.578704,-888.247130,-2516.700203,-70327.566716
11049.581247,12731.542202,-2368.659014,-71093.662214
11049.583791,23242.466579,25018.960840,-75843.454302
11049.586334,-1924.535449,18357.107362,-81972.218286
11049.588877,-13471.748144,-740.205942,-79520.712692
11049.591421,9030.512492,13027.624579,-74464.482406
11049.593964,10362.883188,7402.059420,-71093.662214
11049.596507,7698.141797,-10510.924376,-73698.386908
11049.599051,15100.201217,6217.729913,-74770.920605
11049.601594,-2220.617826,-1184.329507,-77528.864398
11049.604137,-14952.160028,-4737.318029,-77375.645298
11049.606681,-31532.773129,6661.853478,-77222.426198
11049.609224,-30052.361245,-148.041188,-76149.892501
11049.611767,1184.329507,2960.823768,-76609.549800
11049.614311,5921.647536,4737.318029,-75383.797003
11049.616854,-10214.842000,-6217.729913,-75996.673402
11049.619397,11103.089130,12731.542202,-72166.195912
11049.621941,-11695.253884,35677.926404,-77528.864398
11049.624484,-40859.367998,-2664.741391,-83810.847481
11049.627027,-18505.148550,-22946.384202,-82738.313784
11049.629571,8586.388927,15544.324782,-76609.549800
11049.632114,-23094.425390,13323.706956,-74311.263306
11049.634657,-41007.409187,-5625.565159,-74158.044206
11049.637201,2220.617826,6957.935855,-74004.825107
11049.639744,2516.700203,7698.141797,-77375.645298
11049.642287,-26055.249158,2664.741391,-79214.274493
11049.644831,-23538.548956,7254.018232,-76915.987999
11049.647374,-9326.594869,11399.171507,-74004.825107
11049.649924,19393.395680,9326.594869,-72779.072310
11049.652474,23982.672521,9918.759623,-75690.235202
11049.655024,13027.624579,14508.036463,-75843.454302
11049.657574,8438.347739,14952.160028,-74617.701505
11049.660124,-7698.141797,15544.324782,-73545.167808
11049.662674,-10510.924376,5477.523971,-74464.482406
11049.665224,18653.189738,10955.047942,-76762.768900
11049.667774,2516.700203,25018.960840,-79367.493593
11049.670324,-7846.182985,10510.924376,-76762.768900
11049.672874,-7994.224174,8882.471304,-70327.566716
11049.675424,1184.329507,21169.889941,-71553.319513
11049.677974,3552.988522,-2664.741391,-77222.426198
11049.680524,23242.466579,11103.089130,-79061.055394
11049.683074,20873.807564,15988.448347,-76303.111601
11049.685624,-1480.411884,-740.205942,-74464.482406
11049.688174,3404.947333,15396.283594,-72166.195912
11049.690724,-4293.194464,-6365.771101,-75537.016103
11049.693274,-5033.400406,5477.523971,-77222.426198
11049.695824,-11991.336260,1924.535449,-77682.083497
11049.698374,-19541.436869,-12583.501014,-77528.864398
11049.700924,-3701.029710,1924.535449,-74311.263306
11049.703474,740.205942,6217.729913,-74311.263306
11049.706023,888.247130,11843.295072,-77682.083497
11049.708573,-13915.871710,740.205942,-77375.645298
11049.711123,5033.400406,-5625.565159,-70021.128517
11049.713673,-1480.411884,2812.782580,-76456.330700
11049.716223,-12731.542202,20577.725188,-80593.246390
11049.718773,-3552.988522,3108.864956,-77375.645298
11049.721323,-592.164754,-15544.324782,-77375.645298
