#time,accel_x,accel_y,accel_z
11173.020293,-740.205942,4737.318029,-75843.454302
11173.022831,-1480.411884,5033.400406,-75996.673402
11173.025369,-1628.453072,4589.276840,-75996.673402
11173.027908,-1480.411884,4737.318029,-75537.016103
11173.030446,-740.205942,4589.276840,-76303.111601
11173.032985,5773.606348,6365.771101,-74158.044206
11173.035523,16728.654289,-6513.812290,-71859.757712
11173.038061,16284.530724,-6957.935855,-70787.224015
11173.040600,-296.082377,7254.018232,-75383.797003
11173.043138,-2220.617826,-1184.329507,-76915.987999
11173.045677,2368.659014,-13027.624579,-76762.768900
11173.048215,-148.041188,3701.029710,-77069.207099
11173.050753,4441.235652,9622.677246,-75843.454302
11173.053292,7402.059420,-1480.411884,-76915.987999
11173.055830,-9030.512492,-1628.453072,-77528.864398
11173.058368,-11547.212695,30348.443622,-75996.673402
11173.060907,9770.718434,4885.359217,-74464.482406
11173.063445,21910.095883,-12583.501014,-73545.167808
11173.065984,15248.242405,-3849.070898,-76149.892501
11173.068522,4589.276840,2220.617826,-77222.426198
11173.071060,-9622.677246,12879.583391,-73391.948708
11173.073599,-10658.965565,15840.407159,-72932.291410
11173.076137,-9030.512492,10510.924376,-74004.825107
11173.078676,-1332.370696,3997.112087,-76303.111601
11173.081214,3849.070898,6809.894666,-75996.673402
11173.083752,15100.201217,-8586.388927,-74924.139704
11173.086291,-7402.059420,-2368.659014,-76303.111601
11173.088829,-22206.178260,21021.848753,-75996.673402
11173.091368,-10955.047942,15396.283594,-74770.920605
11173.093906,-5329.482782,-888.247130,-75537.016103
11173.096444,20133.601622,4293.194464,-72012.976812
11173.098983,22354.219448,1036.288319,-70480.785816
11173.101521,15396.283594,11251.130318,-71859.757712
11173.104060,-2516.700203,5625.565159,-73698.386908
11173.106598,-13767.830521,-2368.659014,-78141.740796
11173.109136,444.123565,11103.089130,-76303.111601
11173.111675,-6513.812290,10066.800811,-77528.864398
11173.114213,-6365.771101,4737.318029,-77375.645298
11173.116752,-13175.665768,5773.606348,-77069.207099
11173.119297,-24278.754898,30940.608376,-73851.606007
11173.121842,-3701.029710,15396.283594,-73545.167808
11173.124387,10066.800811,-10955.047942,-74158.044206
11173.126932,18653.189738,-11843.295072,-76456.330700
11173.129478,-4441.235652,14359.995275,-77528.864398
11173.132023,-11991.336260,6513.812290,-76303.111601
11173.134568,-14211.954086,-7254.018232,-74924.139704
11173.137113,-4885.359217,14508.036463,-73391.948708
11173.139659,7105.977043,12287.418637,-74924.139704
11173.142204,25315.043216,-13915.871710,-76303.111601
11173.144749,-12879.583391,-8734.430116,-78448.178995
11173.147294,-33457.308578,29460.196492,-76303.111601
11173.149839,-10807.006753,15840.407159,-72472.634111
11173.152385,-1184.329507,-19985.560434,-76303.111601
11173.154930,-3552.988522,6513.812290,-77528.864398
11173.157475,4441.235652,-1924.535449,-78907.836294
11173.160020,-6069.688724,12879.583391,-75996.673402
11173.162566,27387.619854,13323.706956,-71859.757712
11173.165111,27683.702231,-14359.995275,-73238.729609
11173.167656,-2516.700203,10066.800811,-75537.016103
11173.170201,-9770.718434,24278.754898,-75077.358804
11173.172746,5033.400406,-15692.365970,-76609.549800
11173.175292,-7254.018232,-7994.224174,-78754.617194
11173.177837,-9178.553681,17320.819043,-76915.987999
11173.180382,4145.153275,-444.123565,-74311.263306
11173.182927,7994.224174,-2072.576638,-74924.139704
11173.185473,-740.205942,15100.201217,-75843.454302
11173.188018,4293.194464,-740.205942,-78294.959896
11173.190563,-6069.688724,5477.523971,-74924.139704
11173.193108,-10066.800811,2220.617826,-75230.577904
11173.195653,-23538.548956,740.205942,-81512.560987
11173.198199,-25611.125593,20873.807564,-82431.875585
11173.200721,-6809.894666,11991.336260,-76149.892501
11173.203243,-4145.153275,-3108.864956,-73238.729609
11173.205765,-13619.789333,1924.535449,-75383.797003
11173.208287,-19541.436869,11251.130318,-79214.274493
11173.210809,9030.512492,-3108.864956,-77528.864398
11173.213331,14804.118840,-10955.047942,-76149.892501
11173.215853,1924.535449,13175.665768,-74924.139704
11173.218375,3701.029710,5477.523971,-74311.263306
11173.220897,15988.448347,6957.935855,-72625.853210
11173.223419,14359.995275,-3404.947333,-74464.482406
11173.225941,-4145.153275,11251.130318,-77375.645298
11173.228463,3849.070898,-2368.659014,-76915.987999
11173.230985,-148.041188,-6809.894666,-75690.235202
11173.233507,-12583.501014,8290.306550,-76303.111601
11173.236029,-10658.965565,16432.571912,-76456.330700
11173.238551,-11547.212695,-19985.560434,-78448.178995
11173.241073,-25611.125593,3256.906145,-79980.369991
11173.243595,6513.812290,13915.871710,-75383.797003
11173.246117,26943.496289,-14211.954086,-73238.729609
11173.248639,13175.665768,16136.489536,-73085.510509
11173.251161,4589.276840,9474.636058,-74464.482406
11173.253683,-1332.370696,21762.054695,-72625.853210
11173.256205,9918.759623,25167.002028,-73698.386908
11173.258727,-3552.988522,-9918.759623,-78448.178995
11173.261249,-19541.436869,-3701.029710,-78141.740796
11173.263771,-18209.066173,23094.425390,-74770.920605
11173.266293,15840.407159,9474.636058,-72166.195912
11173.268815,18209.066173,-3997.112087,-74004.825107
11173.271337,-8438.347739,13915.871710,-76915.987999
11173.273859,-13027.624579,22946.384202,-74770.920605
11173.276381,5625.565159,-1628.453072,-74617.701505
11173.278903,2220.617826,3256.906145,-75996.673402
11173.281425,6957.935855,-3997.112087,-77222.426198
11173.283947,-10510.924376,1628.453072,-75690.235202
11173.286469,-13175.665768,9474.636058,-76149.892501
11173.288991,-1036.288319,12879.583391,-74770.920605
11173.291513,16728.654289,6513.812290,-71706.538613
11173.294035,21021.848753,5625.565159,-69714.690318
11173.296557,-4589.276840,6217.729913,-74617.701505
11173.299079,-7550.100608,-1628.453072,-78294.959896
11173.301611,8142.265362,-888.247130,-76762.768900
11173.304144,13175.665768,12435.459826,-72932.291410
11173.306676,3997.112087,14952.160028,-72012.976812
11173.309208,-3404.947333,-6217.729913,-75537.016103
11173.311741,-11547.212695,-15100.201217,-77069.207099
11173.314273,5181.441594,5329.482782,-74158.044206
11173.316805,-18949.272115,17172.777854,-76456.330700
11173.319338,-14804.118840,1036.288319,-77069.207099
11173.321870,-2516.700203,1036.288319,-75843.454302
11173.324402,-1184.329507,2664.741391,-76762.768900
11173.326935,-12287.418637,8586.388927,-75230.577904
11173.329467,-1036.288319,14656.077652,-73698.386908
11173.331999,10510.924376,-1480.411884,-74004.825107
11173.334531,7698.141797,-16580.613101,-78141.740796
11173.337064,-26055.249158,5773.606348,-77069.207099
11173.339596,-21762.054695,26499.372724,-75690.235202
11173.342128,7402.059420,3701.029710,-73851.606007
11173.344661,-9918.759623,-25018.960840,-79061.055394
11173.347193,-4145.153275,8290.306550,-77682.083497
11173.349725,3849.070898,-1480.411884,-76303.111601
11173.352258,16728.654289,10066.800811,-72012.976812
11173.354790,35085.761651,3849.070898,-73851.606007
11173.357322,13915.871710,-10066.800811,-75690.235202
11173.359855,-10510.924376,17912.983796,-75383.797003
11173.362387,-11399.171507,7402.059420,-75843.454302
11173.364919,-3404.947333,-13471.748144,-76303.111601
11173.367452,-8438.347739,4293.194464,-77222.426198
11173.369984,-5181.441594,3108.864956,-76609.549800
11173.372516,8882.471304,-10066.800811,-74617.701505
11173.375049,4885.359217,6365.771101,-75843.454302
11173.377581,9326.594869,4441.235652,-74924.139704
11173.380113,-5329.482782,1480.411884,-77682.083497
11173.382646,-5921.647536,5181.441594,-75996.673402
11173.385178,2812.782580,-1924.535449,-73238.729609
11173.387710,7254.018232,4737.318029,-74924.139704
11173.390243,3256.906145,12583.501014,-77375.645298
11173.392775,-1480.411884,2812.782580,-76303.111601
11173.395307,148.041188,148.041188,-74004.825107
11173.397839,12879.583391,-296.082377,-70327.566716
11173.400372,-2812.782580,-6217.729913,-76303.111601
11173.402913,-7402.059420,-3404.947333,-79673.931792
11173.405454,5477.523971,1628.453072,-78141.740796
11173.407995,4293.194464,-740.205942,-75843.454302
11173.410536,3701.029710,2368.659014,-74311.263306
11173.413077,1036.288319,-1480.411884,-75383.797003
11173.415618,-1332.370696,1480.411884,-75996.673402
11173.418159,6069.688724,14063.912898,-76149.892501
11173.420700,7105.977043,-3108.864956,-77988.521696
11173.423241,-1332.370696,-2812.782580,-76915.987999
11173.425782,-10955.047942,26943.496289,-73698.386908
11173.428323,13323.706956,-6365.771101,-74158.044206
11173.430864,1924.535449,-8290.306550,-74004.825107
11173.433406,-11251.130318,15692.365970,-77835.302597
11173.435947,-3701.029710,-10066.800811,-78601.398095
11173.438488,-1036.288319,-1036.288319,-74617.701505
11173.441029,-740.205942,16728.654289,-73085.510509
11173.443570,-27683.702231,1776.494261,-78294.959896
11173.446111,-26943.496289,15988.448347,-78601.398095
11173.448652,9178.553681,8734.430116,-74617.701505
11173.451193,15692.365970,-22502.260637,-75690.235202
11173.453734,-11251.130318,3404.947333,-75843.454302
11173.456275,-25907.207970,22354.219448,-76149.892501
11173.458816,1480.411884,296.082377,-74924.139704
11173.461357,6661.853478,2220.617826,-75690.235202
11173.463898,-7698.141797,21762.054695,-76303.111601
11173.466439,0.000000,7994.224174,-75383.797003
11173.468980,592.164754,-6661.853478,-76149.892501
11173.471521,-3701.029710,-11251.130318,-75690.235202
11173.474062,-13619.789333,15248.242405,-76762.768900
11173.476604,3108.864956,17616.901420,-74617.701505
11173.479145,-13471.748144,12139.377449,-79061.055394
11173.481686,-14211.954086,7550.100608,-77069.207099
11173.484227,-15544.324782,-592.164754,-77528.864398
11173.486768,-10807.006753,8290.306550,-75690.235202
11173.489309,-21465.972318,14063.912898,-82125.437386
11173.491850,-7105.977043,2812.782580,-79827.150892
11173.494391,1036.288319,21317.931130,-73698.386908
11173.496932,12879.583391,5921.647536,-70787.224015
11173.499473,-5773.606348,888.247130,-73391.948708
11173.502014,-24870.919651,20429.683999,-76303.111601
11173.504535,0.000000,15988.448347,-74158.044206
11173.507055,1924.535449,6217.729913,-75843.454302
11173.509574,-6957.935855,-2368.659014,-77375.645298
11173.512094,-17912.983796,19837.519246,-75690.235202
11173.514613,-1036.288319,9474.636058,-75077.358804
11173.517132,11103.089130,444.123565,-74464.482406
11173.519652,-1184.329507,-2812.782580,-76762.768900
11173.522171,-26499.372724,29312.155303,-76762.768900
11173.524691,8734.430116,9474.636058,-74770.920605
11173.527210,10658.965565,-16728.654289,-75537.016103
11173.529729,-8438.347739,21465.972318,-75077.358804
11173.532249,-3108.864956,9918.759623,-77069.207099
11173.534768,7846.182985,-7550.100608,-75843.454302
11173.537287,25167.002028,-6365.771101,-74617.701505
11173.539807,10362.883188,-8734.430116,-74924.139704
11173.542326,-17172.777854,16284.530724,-75077.358804
11173.544846,-13027.624579,27831.743419,-74617.701505
11173.547365,6661.853478,-12879.583391,-76609.549800
11173.549884,-5329.482782,8290.306550,-78294.959896
11173.552404,-1924.535449,7550.100608,-77835.302597
11173.554923,6957.935855,-12879.583391,-75383.797003
11173.557442,-1036.288319,740.205942,-75230.577904
11173.559962,-6661.853478,6217.729913,-75690.235202
11173.562481,3701.029710,9030.512492,-73391.948708
11173.565001,5921.647536,-2960.823768,-75383.797003
11173.567520,3849.070898,9622.677246,-73545.167808
11173.570039,10362.883188,16284.530724,-72012.976812
11173.572559,34789.679274,-9770.718434,-70787.224015
11173.575078,11251.130318,-22206.178260,-76609.549800
11173.577598,-15840.407159,-20577.725188,-79673.931792
11173.580117,-22650.301825,18653.189738,-77682.083497
11173.582636,14508.036463,19985.560434,-69867.909418
11173.585156,19689.478057,-16284.530724,-73085.510509
11173.587675,-5477.523971,-4589.276840,-79673.931792
11173.590194,-11991.336260,2220.617826,-78601.398095
11173.592714,7254.018232,3108.864956,-74464.482406
11173.595233,3701.029710,-4145.153275,-74004.825107
11173.597753,-3256.906145,-4441.235652,-76609.549800
11173.600272,-6809.894666,15988.448347,-77375.645298
11173.602791,7846.182985,-4293.194464,-77375.645298
11173.605322,6809.894666,-6809.894666,-76762.768900
11173.607853,-8142.265362,24278.754898,-75690.235202
11173.610384,7846.182985,-2960.823768,-74617.701505
11173.612915,-2812.782580,-9326.594869,-73238.729609
11173.615446,-15840.407159,11991.336260,-76762.768900
11173.617977,-1332.370696,-3256.906145,-77682.083497
11173.620508,3404.947333,2812.782580,-75996.673402
11173.623039,9622.677246,11399.171507,-73391.948708
11173.625570,-24870.919651,-1184.329507,-77835.302597
11173.628101,-31680.814318,16432.571912,-78754.617194
11173.630632,6217.729913,9178.553681,-75077.358804
11173.633163,14211.954086,-20873.807564,-75843.454302
11173.635694,-10807.006753,12287.418637,-76456.330700
11173.638225,-15840.407159,21465.972318,-75690.235202
11173.640756,6661.853478,-4293.194464,-74617.701505
11173.643287,4145.153275,6661.853478,-74770.920605
11173.645818,-10807.006753,27239.578666,-74924.139704
11173.648349,2220.617826,8290.306550,-74311.263306
11173.650880,6217.729913,-7254.018232,-76149.892501
11173.653411,-10362.883188,11103.089130,-77682.083497
11173.655942,-23686.590144,18209.066173,-76303.111601
11173.658472,-14359.995275,-5477.523971,-79980.369991
11173.661003,-6809.894666,-3997.112087,-74464.482406
11173.663534,148.041188,13619.789333,-73698.386908
11173.666065,13471.748144,28868.031738,-70021.128517
11173.668596,8882.471304,12583.501014,-72779.072310
11173.671127,-740.205942,9178.553681,-74924.139704
11173.673658,-6957.935855,1332.370696,-79061.055394
11173.676189,-7105.977043,11251.130318,-75996.673402
11173.678720,-11843.295072,17468.860231,-73238.729609
11173.681251,-4589.276840,8882.471304,-73698.386908
11173.683782,-3404.947333,-1480.411884,-75843.454302
11173.686313,-9770.718434,9918.759623,-78141.740796
11173.688844,-1480.411884,7402.059420,-76303.111601
11173.691375,-16580.613101,1924.535449,-76303.111601
11173.693906,-9178.553681,17172.777854,-73238.729609
11173.696437,9622.677246,7402.059420,-72932.291410
11173.698968,13767.830521,-22058.137072,-77375.645298
11173.701499,-27535.661042,13323.706956,-77682.083497
11173.704030,-17616.901420,27387.619854,-76762.768900
11173.706542,12583.501014,-3108.864956,-73851.606007
11173.709054,2812.782580,1924.535449,-75077.358804
11173.711565,-7994.224174,15248.242405,-76456.330700
11173.714077,3108.864956,-5921.647536,-76915.987999
11173.716589,28127.825796,-11695.253884,-75537.016103
11173.719101,6661.853478,-10066.800811,-76149.892501
11173.721613,0.000000,-3108.864956,-75537.016103
11173.724125,-20281.642811,30644.525999,-75230.577904
11173.726637,-4293.194464,-1332.370696,-76149.892501
11173.729149,-7254.018232,-4441.235652,-77835.302597
11173.731661,-4737.318029,8438.347739,-78294.959896
11173.734173,6217.729913,-2220.617826,-75230.577904
11173.736684,11251.130318,-9474.636058,-74311.263306
11173.739196,-2220.617826,6957.935855,-74464.482406
11173.741708,-1776.494261,13767.830521,-75383.797003
11173.744220,14359.995275,2368.659014,-73238.729609
11173.746732,-5477.523971,-10214.842000,-76762.768900
11173.749244,-27091.537477,14804.118840,-79214.274493
11173.751756,-6365.771101,3256.906145,-79520.712692
11173.754268,-13175.665768,7105.977043,-78754.617194
11173.756780,-17616.901420,7994.224174,-78907.836294
11173.759292,-5181.441594,-2220.617826,-75996.673402
11173.761803,3108.864956,-10510.924376,-74004.825107
11173.764315,-888.247130,7846.182985,-74464.482406
11173.766827,4885.359217,-1924.535449,-77222.426198
11173.769339,13767.830521,-7254.018232,-76915.987999
11173.771851,10362.883188,8438.347739,-74770.920605
11173.774363,-740.205942,-14063.912898,-74311.263306
11173.776875,-14359.995275,6661.853478,-75230.577904
11173.779387,2664.741391,11103.089130,-75383.797003
11173.781899,11399.171507,-8438.347739,-76762.768900
11173.784411,-5625.565159,7254.018232,-75843.454302
11173.786922,9770.718434,16432.571912,-74004.825107
11173.789434,15396.283594,-11843.295072,-74617.701505
11173.791946,-148.041188,-7402.059420,-76762.768900
11173.794458,-888.247130,20281.642811,-75690.235202
11173.796970,-5773.606348,-4293.194464,-75383.797003
11173.799482,-6661.853478,15396.283594,-74311.263306
11173.801994,-25018.960840,-3108.864956,-78754.617194
11173.804506,-26351.331535,7254.018232,-77682.083497
11173.807031,5033.400406,19393.395680,-73391.948708
11173.809557,14063.912898,-18061.024985,-75383.797003
11173.812082,-5921.647536,-17320.819043,-78294.959896
11173.814608,-22650.301825,19097.313304,-78754.617194
11173.817133,-4737.318029,23538.548956,-73085.510509
11173.819659,13175.665768,-296.082377,-72319.415011
11173.822184,-2368.659014,4293.194464,-76149.892501
11173.824710,-13915.871710,12287.418637,-77988.521696
11173.827235,-3552.988522,444.123565,-76149.892501
11173.829761,6069.688724,-4293.194464,-74770.920605
11173.832286,5625.565159,14656.077652,-72472.634111
11173.834812,5033.400406,25611.125593,-73851.606007
11173.837337,-9918.759623,-1924.535449,-77069.207099
11173.839863,-14804.118840,-2812.782580,-77069.207099
11173.842388,3256.906145,3404.947333,-74617.701505
11173.844914,15692.365970,5477.523971,-79061.055394
11173.847439,-20873.807564,1628.453072,-80746.465489
11173.849965,-13323.706956,17172.777854,-75690.235202
11173.852490,2368.659014,17024.736666,-72012.976812
11173.855016,13471.748144,-1628.453072,-71859.757712
11173.857541,-7550.100608,1924.535449,-75537.016103
11173.860067,-23538.548956,11251.130318,-79673.931792
11173.862592,1776.494261,15396.283594,-75383.797003
11173.865118,10658.965565,-1776.494261,-73545.167808
11173.867643,-8882.471304,11399.171507,-74770.920605
11173.870169,-12287.418637,23686.590144,-74311.263306
11173.872694,18209.066173,-16876.695478,-75537.016103
11173.875220,-5181.441594,-15248.242405,-73391.948708
11173.877745,-5921.647536,5477.523971,-76762.768900
11173.880271,-33753.390955,34049.473332,-77222.426198
11173.882796,-8290.306550,-16580.613101,-75690.235202
11173.885322,4145.153275,-8438.347739,-76609.549800
11173.887847,-3997.112087,-1036.288319,-78448.178995
11173.890373,-6365.771101,19097.313304,-75077.358804
11173.892898,28868.031738,4885.359217,-72625.853210
11173.895424,24574.837274,-19393.395680,-75383.797003
11173.897949,-7105.977043,17468.860231,-75383.797003
11173.900475,-14804.118840,8586.388927,-76762.768900
11173.903000,-16432.571912,-13915.871710,-77528.864398
11173.905526,-5477.523971,2516.700203,-78601.398095
11173.908063,-3108.864956,9918.759623,-77069.207099
11173.910600,6513.812290,-2220.617826,-76149.892501
11173.913137,8438.347739,-2368.659014,-74770.920605
11173.915673,3701.029710,1332.370696,-76303.111601
11173.918210,-9918.759623,-2516.700203,-79673.931792
11173.920747,-25463.084405,-7254.018232,-79827.150892
11173.923284,-9030.512492,16284.530724,-75230.577904
11173.925821,16136.489536,38934.832549,-72472.634111
11173.928358,34641.638086,4737.318029,-71093.662214
11173.930895,5921.647536,-19985.560434,-73851.606007
11173.933432,-16876.695478,592.164754,-76303.111601
11173.935969,-2072.576638,10362.883188,-75077.358804
11173.938506,2960.823768,2812.782580,-77682.083497
11173.941043,13323.706956,-6217.729913,-78294.959896
11173.943580,-2516.700203,7402.059420,-76303.111601
11173.946117,5625.565159,19689.478057,-72012.976812
11173.948654,11991.336260,-3552.988522,-72779.072310
11173.951191,-1776.494261,-7550.100608,-77375.645298
11173.953728,-11399.171507,12731.542202,-78294.959896
11173.956265,-22354.219448,-16876.695478,-78601.398095
11173.958802,-23538.548956,5033.400406,-76762.768900
11173.961339,10658.965565,5477.523971,-74617.701505
11173.963876,27387.619854,-10955.047942,-73851.606007
11173.966413,22798.343014,25167.002028,-72166.195912
11173.968950,9178.553681,11695.253884,-76456.330700
11173.971487,8142.265362,18801.230927,-72012.976812
11173.974024,20133.601622,21614.013506,-72166.195912
11173.976561,-15692.365970,-7994.224174,-76762.768900
11173.979098,-35233.802839,6661.853478,-78448.178995
11173.981635,-15544.324782,14508.036463,-76456.330700
11173.984172,14211.954086,-12435.459826,-75843.454302
11173.986709,11103.089130,12287.418637,-73545.167808
11173.989246,-7550.100608,26647.413912,-73085.510509
11173.991783,-888.247130,2812.782580,-73545.167808
11173.994320,-2812.782580,444.123565,-75690.235202
11173.996857,-11991.336260,9622.677246,-77988.521696
11173.999394,-5921.647536,1480.411884,-77528.864398
11174.001931,-8438.347739,-1036.288319,-77069.207099
11174.004468,-27239.578666,-3701.029710,-79061.055394
11174.007005,-8882.471304,49889.880491,-74464.482406
11174.009550,23686.590144,16728.654289,-70634.004916
11174.012096,-3256.906145,-46781.015534,-77222.426198
11174.014642,-9474.636058,-4441.235652,-76762.768900
11174.017188,-12139.377449,35677.926404,-76762.768900
11174.019734,13619.789333,11103.089130,-73238.729609
11174.022280,15544.324782,-5033.400406,-72625.853210
11174.024826,-23834.631332,15544.324782,-75690.235202
11174.027372,-22354.219448,15692.365970,-75383.797003
11174.029918,9622.677246,-3256.906145,-77069.207099
11174.032463,-15988.448347,-5477.523971,-78601.398095
11174.035009,-5033.400406,20873.807564,-75843.454302
11174.037555,6217.729913,12879.583391,-74004.825107
11174.040101,8142.265362,-10955.047942,-73391.948708
11174.042647,-2220.617826,28868.031738,-72319.415011
11174.045193,8290.306550,11843.295072,-76456.330700
11174.047739,7550.100608,-6957.935855,-76149.892501
11174.050285,-8586.388927,15396.283594,-74617.701505
11174.052830,-5773.606348,7254.018232,-75537.016103
11174.055376,4441.235652,-5329.482782,-75383.797003
11174.057922,3256.906145,-22650.301825,-79520.712692
11174.060468,-31976.896694,740.205942,-79827.150892
11174.063014,-6069.688724,17320.819043,-75230.577904
11174.065560,-7550.100608,22206.178260,-74311.263306
11174.068106,11251.130318,-17320.819043,-75843.454302
11174.070652,10807.006753,6513.812290,-76609.549800
11174.073197,6069.688724,5033.400406,-74924.139704
11174.075743,-2960.823768,-5773.606348,-75230.577904
11174.078289,-8734.430116,9178.553681,-76762.768900
11174.080835,-7550.100608,888.247130,-78141.740796
11174.083381,148.041188,3552.988522,-75996.673402
11174.085927,2516.700203,-740.205942,-74617.701505
11174.088473,11251.130318,-8882.471304,-73851.606007
11174.091019,11695.253884,8734.430116,-72319.415011
11174.093564,1332.370696,-14211.954086,-79980.369991
11174.096110,-21762.054695,2368.659014,-81206.122788
11174.098656,3256.906145,9030.512492,-73085.510509
11174.101202,16580.613101,-2220.617826,-70787.224015
11174.103748,4145.153275,-1776.494261,-75230.577904
11174.106294,-296.082377,592.164754,-77375.645298
11174.108840,1480.411884,-740.205942,-78448.178995
11174.111393,5033.400406,-14063.912898,-78294.959896
11174.113947,-9918.759623,12731.542202,-75230.577904
11174.116501,-4737.318029,12583.501014,-73391.948708
11174.119054,10807.006753,-9474.636058,-75383.797003
11174.121608,9622.677246,7402.059420,-75383.797003
11174.124162,6513.812290,-18801.230927,-78448.178995
11174.126715,6809.894666,-12287.418637,-74924.139704
11174.129269,-19541.436869,5033.400406,-76915.987999
11174.131823,-14656.077652,6957.935855,-76149.892501
11174.134377,-11991.336260,2664.741391,-75843.454302
11174.136930,5625.565159,22206.178260,-74924.139704
11174.139484,-1776.494261,10066.800811,-74617.701505
11174.142038,-1184.329507,11547.212695,-75843.454302
11174.144591,2220.617826,-2960.823768,-75537.016103
11174.147145,-8586.388927,-11695.253884,-76149.892501
11174.149699,-11991.336260,28275.866984,-74770.920605
11174.152252,14063.912898,3404.947333,-73851.606007
11174.154806,10955.047942,-4441.235652,-74617.701505
11174.157360,-5625.565159,8142.265362,-74617.701505
11174.159913,-12139.377449,19985.560434,-75077.358804
11174.162467,-1924.535449,5181.441594,-74004.825107
11174.165021,2516.700203,1628.453072,-76303.111601
11174.167574,-11103.089130,4589.276840,-78141.740796
11174.170128,-5625.565159,888.247130,-77528.864398
11174.172682,22206.178260,148.041188,-69561.471218
11174.175235,17468.860231,2812.782580,-70480.785816
11174.177789,13619.789333,-3997.112087,-72166.195912
11174.180343,23390.507767,-5181.441594,-68795.375720
11174.182896,12139.377449,7105.977043,-72932.291410
11174.185450,1924.535449,17172.777854,-74770.920605
11174.188004,-592.164754,6513.812290,-74770.920605
11174.190557,-296.082377,7402.059420,-73085.510509
11174.193111,-6809.894666,7846.182985,-74158.044206
11174.195665,-19985.560434,12287.418637,-79214.274493
11174.198218,-9474.636058,-2960.823768,-78601.398095
11174.200772,-3256.906145,8438.347739,-75996.673402
11174.203326,-2516.700203,18357.107362,-73085.510509
11174.205879,7550.100608,-12583.501014,-74004.825107
11174.208433,-18357.107362,9770.718434,-75383.797003
11174.210987,-11991.336260,19837.519246,-78141.740796
11174.213546,10510.924376,-888.247130,-75537.016103
11174.216106,1924.535449,5033.400406,-74924.139704
11174.218666,-1332.370696,12583.501014,-75690.235202
11174.221225,-5921.647536,148.041188,-76303.111601
11174.223785,27683.702231,3108.864956,-72166.195912
11174.226344,30348.443622,-8438.347739,-73085.510509
11174.228904,-13027.624579,3108.864956,-77988.521696
11174.231464,-21910.095883,29756.278868,-76456.330700
11174.234023,-296.082377,-9178.553681,-75077.358804
11174.236583,16432.571912,740.205942,-73238.729609
11174.239142,14508.036463,6069.688724,-73698.386908
11174.241702,-444.123565,-1628.453072,-76149.892501
11174.244262,-2960.823768,8142.265362,-77222.426198
11174.246821,-4885.359217,-740.205942,-77528.864398
11174.249381,-4145.153275,17764.942608,-74464.482406
11174.251941,23686.590144,25315.043216,-68488.937521
11174.254500,-23242.466579,6957.935855,-78907.836294
11174.257060,-14804.118840,-18801.230927,-81052.903688
11174.259619,-13619.789333,-17172.777854,-82585.094684
11174.262179,-4441.235652,29608.237680,-75537.016103
11174.264739,11547.212695,13619.789333,-71553.319513
11174.267298,6217.729913,-21465.972318,-75077.358804
11174.269858,-6217.729913,-2516.700203,-77682.083497
11174.272417,-12287.418637,12731.542202,-78141.740796
11174.274977,11103.089130,-8142.265362,-75537.016103
11174.277537,14359.995275,-5625.565159,-73391.948708
11174.280096,-5625.565159,19541.436869,-74004.825107
11174.282656,1036.288319,11843.295072,-74311.263306
11174.285215,-1628.453072,16580.613101,-73851.606007
11174.287775,38342.667796,4737.318029,-72472.634111
11174.290335,18949.272115,-19097.313304,-77222.426198
11174.292894,-15248.242405,3701.029710,-78294.959896
11174.295454,-10658.965565,9770.718434,-75230.577904
11174.298013,-12139.377449,-7105.977043,-73851.606007
11174.300573,-3701.029710,30052.361245,-73851.606007
11174.303133,-15248.242405,8734.430116,-77375.645298
11174.305692,-7846.182985,5181.441594,-77682.083497
11174.308252,10658.965565,1480.411884,-76303.111601
11174.310811,2812.782580,-13323.706956,-75996.673402
11174.313371,-9474.636058,27831.743419,-74158.044206
11174.315936,-296.082377,27091.537477,-74617.701505
11174.318500,6661.853478,296.082377,-74617.701505
11174.321065,-3108.864956,5921.647536,-75690.235202
11174.323630,-20725.766376,18061.024985,-75843.454302
11174.326194,-7846.182985,7105.977043,-75077.358804
11174.328759,3701.029710,-9474.636058,-76609.549800
11174.331324,3108.864956,6957.935855,-76915.987999
11174.333888,29460.196492,25167.002028,-70634.004916
11174.336453,30940.608376,-6809.894666,-69101.813920
11174.339018,-3256.906145,-24426.796086,-76609.549800
11174.341582,-17172.777854,10658.965565,-76609.549800
11174.344147,6661.853478,21021.848753,-71859.757712
11174.346712,21762.054695,740.205942,-71553.319513
11174.349276,-2664.741391,-4145.153275,-78294.959896
11174.351841,-13915.871710,14656.077652,-76303.111601
11174.354406,-13323.706956,18653.189738,-73085.510509
11174.356970,-2516.700203,3404.947333,-73698.386908
11174.359535,-4885.359217,-5625.565159,-77682.083497
11174.362100,-13915.871710,12287.418637,-78294.959896
11174.364664,-4293.194464,18209.066173,-75537.016103
11174.367229,9474.636058,-14952.160028,-74158.044206
11174.369794,-14508.036463,17912.983796,-74311.263306
11174.372359,-5329.482782,28571.949361,-76762.768900
11174.374923,15100.201217,-5921.647536,-74924.139704
11174.377488,2516.700203,-1036.288319,-76456.330700
11174.380053,2220.617826,5033.400406,-77222.426198
11174.382617,-6809.894666,-3552.988522,-77069.207099
11174.385182,20429.683999,-1036.288319,-73085.510509
11174.387747,17320.819043,-9326.594869,-74158.044206
11174.390311,-15248.242405,11695.253884,-77375.645298
11174.392876,-10807.006753,31532.773129,-76149.892501
11174.395441,10362.883188,-17172.777854,-75690.235202
11174.398005,6957.935855,-6809.894666,-76609.549800
11174.400570,-3404.947333,4737.318029,-75996.673402
11174.403135,1332.370696,888.247130,-74311.263306
11174.405699,2368.659014,1924.535449,-76149.892501
11174.408264,-6809.894666,-5773.606348,-78601.398095
11174.410829,3701.029710,17024.736666,-75537.016103
11174.413393,-21465.972318,5329.482782,-77835.302597
11174.415958,-30792.567187,8142.265362,-79520.712692
11174.418527,-19689.478057,7550.100608,-79367.493593
11174.421096,-2368.659014,-1776.494261,-81512.560987
11174.423665,-15840.407159,3701.029710,-82125.437386
11174.426234,-16136.489536,-592.164754,-78601.398095
11174.428803,-2960.823768,296.082377,-74004.825107
11174.431372,6217.729913,12879.583391,-74158.044206
11174.433940,8142.265362,-9622.677246,-77528.864398
11174.436509,-7105.977043,-2368.659014,-77375.645298
11174.439078,-2220.617826,10066.800811,-75537.016103
11174.441647,8882.471304,3256.906145,-73238.729609
11174.444216,-592.164754,15100.201217,-75690.235202
11174.446785,25463.084405,-9326.594869,-75383.797003
11174.449354,-2220.617826,-2516.700203,-75996.673402
11174.451923,-16580.613101,14063.912898,-77835.302597
11174.454492,-10510.924376,-4589.276840,-77222.426198
11174.457061,-14656.077652,9770.718434,-76456.330700
11174.459630,2368.659014,22354.219448,-75077.358804
11174.462199,11399.171507,22058.137072,-70327.566716
11174.464768,26203.290347,13471.748144,-73545.167808
11174.467336,-6513.812290,-9474.636058,-78448.178995
11174.469905,-31532.773129,2960.823768,-78601.398095
11174.472474,-18209.066173,18357.107362,-74924.139704
11174.475043,-740.205942,-16432.571912,-74004.825107
11174.477612,-2220.617826,-3108.864956,-74924.139704
11174.480181,-6069.688724,28127.825796,-74617.701505
11174.482750,-296.082377,13767.830521,-73698.386908
11174.485319,13175.665768,-1480.411884,-73545.167808
11174.487888,-1184.329507,-3997.112087,-77835.302597
11174.490457,-1776.494261,19245.354492,-75077.358804
11174.493026,25018.960840,23242.466579,-71246.881314
11174.495595,22650.301825,-6957.935855,-71093.662214
11174.498164,19097.313304,-1184.329507,-72472.634111
11174.500737,11103.089130,9918.759623,-70787.224015
11174.503309,888.247130,4145.153275,-73238.729609
11174.505881,-1184.329507,12583.501014,-78141.740796
11174.508453,-9770.718434,11251.130318,-78448.178995
11174.511025,-2516.700203,5329.482782,-74770.920605
11174.513597,-3108.864956,10214.842000,-74311.263306
11174.516169,-25315.043216,11547.212695,-76456.330700
11174.518740,-10066.800811,9326.594869,-76915.987999
11174.521312,8586.388927,-4885.359217,-76609.549800
11174.523884,4441.235652,4293.194464,-74311.263306
11174.526456,11547.212695,30348.443622,-70174.347617
11174.529028,22206.178260,-11547.212695,-72012.976812
11174.531600,-4885.359217,4589.276840,-75230.577904
11174.534172,-27387.619854,26203.290347,-77375.645298
11174.536744,-9918.759623,-17024.736666,-77835.302597
11174.539316,4293.194464,-9326.594869,-75230.577904
11174.541888,1776.494261,-22946.384202,-78448.178995
11174.544460,-26943.496289,14211.954086,-77069.207099
11174.547032,3701.029710,23390.507767,-74004.825107
11174.549604,34789.679274,-8586.388927,-72932.291410
11174.552175,9326.594869,888.247130,-76456.330700
11174.554747,-12287.418637,15396.283594,-77222.426198
11174.557319,-5921.647536,4441.235652,-73851.606007
11174.559891,7402.059420,-13915.871710,-76915.987999
11174.562463,-740.205942,3404.947333,-78141.740796
11174.565035,-2812.782580,6957.935855,-76456.330700
11174.567607,5033.400406,11695.253884,-73391.948708
11174.570179,-2368.659014,7402.059420,-74617.701505
11174.572751,-8438.347739,7254.018232,-77375.645298
11174.575323,-17764.942608,6365.771101,-77069.207099
11174.577895,-6069.688724,4145.153275,-80133.589091
11174.580467,-14656.077652,2516.700203,-81818.999186
11174.583039,-14359.995275,1924.535449,-79827.150892
11174.585610,1184.329507,8290.306550,-75843.454302
11174.588182,10066.800811,18653.189738,-72166.195912
11174.590754,27535.661042,6513.812290,-71859.757712
11174.593326,11547.212695,-6069.688724,-76762.768900
11174.595898,-7994.224174,1628.453072,-78141.740796
11174.598470,-9030.512492,16728.654289,-74311.263306
11174.601042,-5477.523971,16580.613101,-74770.920605
11174.603616,-888.247130,12583.501014,-75230.577904
11174.606190,14952.160028,-13915.871710,-76762.768900
11174.608764,8438.347739,-9326.594869,-76303.111601
11174.611339,4885.359217,18209.066173,-73698.386908
11174.613913,-2812.782580,-1036.288319,-73698.386908
11174.616487,-7402.059420,16580.613101,-74311.263306
11174.619061,-28571.949361,1628.453072,-78601.398095
11174.621635,-27239.578666,11695.253884,-78294.959896
11174.624209,10510.924376,7698.141797,-74770.920605
11174.626784,18357.107362,-22206.178260,-74004.825107
11174.629358,-444.123565,18949.272115,-74158.044206
11174.631932,-4293.194464,3997.112087,-75383.797003
11174.634506,9622.677246,1776.494261,-72779.072310
11174.637080,-8290.306550,5477.523971,-75843.454302
11174.639654,-24426.796086,18949.272115,-77375.645298
11174.642229,-8438.347739,5921.647536,-75843.454302
11174.644803,-444.123565,-4885.359217,-76915.987999
11174.647377,-8586.388927,-12879.583391,-78601.398095
11174.649951,-2960.823768,7402.059420,-75537.016103
11174.652525,1776.494261,9918.759623,-75230.577904
11174.655099,-6957.935855,-2960.823768,-74770.920605
11174.657673,6217.729913,888.247130,-72779.072310
11174.660248,7698.141797,6217.729913,-73238.729609
11174.662822,2516.700203,1332.370696,-74464.482406
11174.665396,-12583.501014,13027.624579,-76456.330700
11174.667970,-11991.336260,-296.082377,-76456.330700
11174.670544,-21465.972318,3108.864956,-76303.111601
11174.673118,-11103.089130,17468.860231,-76303.111601
11174.675693,6069.688724,-3997.112087,-75690.235202
11174.678267,4885.359217,-1628.453072,-74924.139704
11174.680841,7994.224174,35529.885216,-72319.415011
11174.683415,19837.519246,-7254.018232,-72472.634111
11174.685989,-4737.318029,5033.400406,-75077.358804
11174.688563,-23242.466579,30200.402434,-77069.207099
11174.691138,-6069.688724,-16876.695478,-77528.864398
11174.693712,5181.441594,-9326.594869,-77069.207099
11174.696286,-1924.535449,-6217.729913,-77528.864398
11174.698860,-30200.402434,13323.706956,-76915.987999
11174.701434,1628.453072,25907.207970,-73851.606007
11174.704008,34937.720462,-9178.553681,-73085.510509
11174.706584,7698.141797,-2812.782580,-76762.768900
11174.709159,-15248.242405,18209.066173,-77835.302597
11174.711735,888.247130,5477.523971,-74158.044206
11174.714310,16728.654289,-17320.819043,-75996.673402
11174.716885,-2072.576638,4589.276840,-77069.207099
11174.719461,-7402.059420,19985.560434,-74924.139704
11174.722036,-3997.112087,-2368.659014,-76149.892501
11174.724612,-24870.919651,-11399.171507,-79367.493593
11174.727187,-24278.754898,19689.478057,-79367.493593
11174.729762,-19837.519246,18061.024985,-77375.645298
11174.732338,-11547.212695,16136.489536,-78294.959896
11174.734913,5477.523971,-5329.482782,-76609.549800
11174.737489,9178.553681,-1628.453072,-75690.235202
11174.740064,1184.329507,18505.148550,-73391.948708
11174.742639,20133.601622,-444.123565,-72166.195912
11174.745215,16432.571912,-21910.095883,-75230.577904
11174.747790,-4293.194464,8142.265362,-77835.302597
11174.750366,-5625.565159,16284.530724,-75996.673402
11174.752941,8882.471304,2220.617826,-74464.482406
11174.755517,16136.489536,-21317.931130,-76762.768900
11174.758092,-21021.848753,6957.935855,-77528.864398
11174.760667,-15396.283594,22946.384202,-76303.111601
11174.763243,-11547.212695,2220.617826,-76303.111601
11174.765818,-11399.171507,-296.082377,-75843.454302
11174.768394,3108.864956,23538.548956,-75230.577904
11174.770969,1332.370696,23686.590144,-72472.634111
11174.773544,16284.530724,19097.313304,-72779.072310
11174.776120,5033.400406,-10510.924376,-76762.768900
11174.778695,-15396.283594,-5477.523971,-78448.178995
11174.781271,-16580.613101,24278.754898,-75537.016103
11174.783846,-10510.924376,-10955.047942,-75230.577904
11174.786421,-15692.365970,9474.636058,-76915.987999
11174.788997,-6069.688724,23834.631332,-76303.111601
11174.791572,12583.501014,-1036.288319,-72932.291410
11174.794148,11695.253884,-1628.453072,-73391.948708
11174.796723,5329.482782,3552.988522,-76609.549800
11174.799299,25463.084405,19393.395680,-71553.319513
11174.801874,27091.537477,-592.164754,-71859.757712
11174.804449,-9178.553681,-10214.842000,-76915.987999
11174.807025,-40415.244433,17172.777854,-79520.712692
11174.809601,-11695.253884,18505.148550,-75996.673402
11174.812178,20133.601622,-592.164754,-71246.881314
11174.814755,-5329.482782,6957.935855,-76609.549800
11174.817331,-28423.908173,19689.478057,-77988.521696
11174.819908,-4589.276840,9918.759623,-74617.701505
11174.822485,14063.912898,-7105.977043,-72472.634111
11174.825061,-4885.359217,12583.501014,-74004.825107
11174.827638,-21910.095883,19689.478057,-78754.617194
11174.830215,-8290.306550,-444.123565,-76456.330700
11174.832791,-14211.954086,8882.471304,-74464.482406
11174.835368,-3849.070898,24426.796086,-75996.673402
11174.837944,7105.977043,9918.759623,-75690.235202
11174.840521,9770.718434,2516.700203,-74924.139704
11174.843098,7698.141797,-1628.453072,-75843.454302
11174.845674,-3997.112087,-6809.894666,-77069.207099
11174.848251,-3404.947333,-16728.654289,-79214.274493
11174.850828,-25611.125593,-3997.112087,-77375.645298
11174.853404,-7550.100608,23390.507767,-73851.606007
11174.855981,21762.054695,13619.789333,-75690.235202
11174.858558,9178.553681,-14063.912898,-76915.987999
11174.861134,9326.594869,-9326.594869,-76762.768900
11174.863711,-14359.995275,9030.512492,-77682.083497
11174.866287,-5181.441594,2516.700203,-76149.892501
11174.868864,12287.418637,5033.400406,-74464.482406
11174.871441,0.000000,-6661.853478,-77682.083497
11174.874017,-25907.207970,-5625.565159,-80440.027290
11174.876594,-21762.054695,7254.018232,-77222.426198
11174.879171,-7402.059420,-3404.947333,-75843.454302
11174.881747,8438.347739,-7698.141797,-75537.016103
11174.884324,14063.912898,7698.141797,-74464.482406
11174.886901,-444.123565,7254.018232,-76609.549800
11174.889477,7402.059420,1036.288319,-74464.482406
11174.892054,10510.924376,7698.141797,-74617.701505
11174.894630,22798.343014,1036.288319,-74924.139704
11174.897207,-1776.494261,-1924.535449,-76762.768900
11174.899784,-12287.418637,17320.819043,-76609.549800
11174.902360,4885.359217,10955.047942,-73545.167808
11174.904937,30644.525999,-9918.759623,-74924.139704
11174.907514,-3404.947333,-5921.647536,-76456.330700
11174.910090,-20281.642811,14063.912898,-75537.016103
11174.912639,-6069.688724,-4293.194464,-76303.111601
11174.915187,-9770.718434,-5181.441594,-77375.645298
11174.917736,-4589.276840,25463.084405,-76456.330700
11174.920284,740.205942,34641.638086,-75843.454302
11174.922833,-9770.718434,14804.118840,-75996.673402
11174.925381,14508.036463,-3701.029710,-75537.016103
11174.927930,3256.906145,-17912.983796,-76915.987999
11174.930478,-9474.636058,29164.114115,-75383.797003
11174.933027,-15396.283594,-4885.359217,-75690.235202
11174.935576,-21021.848753,-888.247130,-77528.864398
11174.938124,-9918.759623,26351.331535,-75843.454302
11174.940673,11695.253884,5329.482782,-73698.386908
11174.943221,16432.571912,7550.100608,-71400.100414
11174.945770,-8734.430116,-6513.812290,-76149.892501
11174.948318,-35381.844028,6513.812290,-81052.903688
11174.950867,-8882.471304,18949.272115,-78294.959896
11174.953415,-6365.771101,3256.906145,-76609.549800
11174.955964,-5329.482782,592.164754,-72932.291410
11174.958512,2960.823768,13915.871710,-72625.853210
11174.961061,5033.400406,10658.965565,-74158.044206
11174.963609,-1480.411884,9178.553681,-74617.701505
11174.966158,-13471.748144,3849.070898,-76609.549800
11174.968706,-17024.736666,3701.029710,-75537.016103
11174.971255,296.082377,12731.542202,-72012.976812
11174.973803,6513.812290,1184.329507,-74770.920605
11174.976352,-2516.700203,-4589.276840,-77222.426198
11174.978901,6217.729913,26943.496289,-73851.606007
11174.981449,18505.148550,-148.041188,-71859.757712
11174.983998,6217.729913,-7698.141797,-75537.016103
11174.986546,-12583.501014,15100.201217,-77528.864398
11174.989095,-9770.718434,6069.688724,-76762.768900
11174.991643,5625.565159,-2812.782580,-74924.139704
11174.994192,2220.617826,-23242.466579,-78141.740796
11174.996740,-22946.384202,15248.242405,-76609.549800
11174.999289,9622.677246,18949.272115,-74311.263306
11175.001837,33457.308578,-12435.459826,-73085.510509
11175.004386,7402.059420,7254.018232,-75230.577904
11175.006934,-13619.789333,11695.253884,-77069.207099
11175.009483,-3849.070898,-15840.407159,-76762.768900
11175.012031,-6513.812290,-21021.848753,-77988.521696
11175.014586,-4145.153275,148.041188,-76915.987999
11175.017140,-16432.571912,28571.949361,-76609.549800
11175.019695,23390.507767,7402.059420,-72166.195912
11175.022249,19985.560434,-9770.718434,-71859.757712
11175.024804,1184.329507,1332.370696,-75383.797003
11175.027358,-22650.301825,8142.265362,-78907.836294
11175.029913,-444.123565,-3701.029710,-76762.768900
11175.032467,15692.365970,-3997.112087,-75996.673402
11175.035022,-3256.906145,-14804.118840,-79520.712692
11175.037577,-18653.189738,-1480.411884,-77069.207099
11175.040131,-1184.329507,8882.471304,-74770.920605
11175.042686,20577.725188,-10955.047942,-74158.044206
11175.045240,14359.995275,5181.441594,-74770.920605
11175.047795,-12731.542202,10955.047942,-77835.302597
11175.050349,444.123565,18209.066173,-74770.920605
11175.052904,22206.178260,-22354.219448,-75537.016103
11175.055458,-1628.453072,-14211.954086,-77682.083497
11175.058013,-6809.894666,26203.290347,-75230.577904
11175.060567,-3404.947333,148.041188,-72319.415011
11175.063122,-2516.700203,10362.883188,-73698.386908
11175.065676,-22354.219448,9178.553681,-78141.740796
11175.068231,-19393.395680,18209.066173,-77835.302597
11175.070785,10955.047942,1628.453072,-74158.044206
11175.073340,13619.789333,-19985.560434,-74311.263306
11175.075894,-2072.576638,19689.478057,-75077.358804
11175.078449,-3997.112087,6513.812290,-77835.302597
11175.081003,-9030.512492,7846.182985,-74464.482406
11175.083558,-10214.842000,18801.230927,-73851.606007
11175.086112,-9918.759623,11695.253884,-75537.016103
11175.088667,740.205942,-6217.729913,-76915.987999
11175.091221,-18061.024985,-15100.201217,-80133.589091
11175.093776,-32272.979071,18061.024985,-80593.246390
11175.096330,3552.988522,4441.235652,-78448.178995
11175.098885,296.082377,-13915.871710,-74924.139704
11175.101439,-1628.453072,23242.466579,-71093.662214
11175.103994,1332.370696,21614.013506,-72625.853210
11175.106548,6365.771101,-5329.482782,-73851.606007
11175.109103,-3849.070898,-9326.594869,-77375.645298
11175.111657,-10066.800811,9622.677246,-75537.016103
11175.114212,-18357.107362,16284.530724,-74924.139704
11175.116771,-7846.182985,6809.894666,-75690.235202
11175.119331,-148.041188,-9770.718434,-77375.645298
11175.121891,12583.501014,22502.260637,-74158.044206
11175.124451,14804.118840,4737.318029,-72319.415011
11175.127010,-888.247130,8438.347739,-73851.606007
11175.129570,-19985.560434,22798.343014,-76762.768900
11175.132130,-15692.365970,-12139.377449,-79367.493593
11175.134689,-740.205942,3701.029710,-76762.768900
11175.137249,4737.318029,-8734.430116,-76456.330700
11175.139809,21762.054695,11103.089130,-74924.139704
11175.142368,21317.931130,10807.006753,-73391.948708
11175.144928,27535.661042,-13915.871710,-74158.044206
11175.147488,-3997.112087,15100.201217,-75230.577904
11175.150047,-16876.695478,9326.594869,-77069.207099
11175.152607,-3701.029710,-15544.324782,-76762.768900
11175.155167,-14211.954086,-6365.771101,-79520.712692
11175.157726,-9770.718434,13471.748144,-77375.645298
11175.160286,15544.324782,-3849.070898,-73851.606007
11175.162846,-4145.153275,-14952.160028,-77988.521696
11175.165405,-18061.024985,13767.830521,-78448.178995
11175.167965,148.041188,15840.407159,-73698.386908
11175.170525,21614.013506,-7550.100608,-72472.634111
11175.173084,444.123565,-21614.013506,-80133.589091
11175.175644,-7550.100608,-3849.070898,-78448.178995
11175.178204,-4737.318029,27091.537477,-74924.139704
11175.180763,27239.578666,-8290.306550,-72932.291410
11175.183323,13027.624579,-17024.736666,-76456.330700
11175.185883,-10658.965565,16728.654289,-77988.521696
11175.188442,2812.782580,10214.842000,-73698.386908
11175.191002,-2516.700203,-29756.278868,-77528.864398
11175.193562,-27239.578666,14211.954086,-79061.055394
11175.196121,-7105.977043,15396.283594,-77528.864398
11175.198681,25611.125593,-18357.107362,-73238.729609
11175.201241,25759.166782,11695.253884,-72625.853210
11175.203800,1184.329507,8882.471304,-76762.768900
11175.206360,-3256.906145,30052.361245,-73238.729609
11175.208920,23686.590144,16284.530724,-71553.319513
11175.211479,-7698.141797,-7550.100608,-76303.111601
11175.214039,-32569.061448,11991.336260,-78448.178995
11175.216599,-16876.695478,7105.977043,-76762.768900
11175.219162,2960.823768,2664.741391,-74158.044206
11175.221725,22206.178260,11399.171507,-74158.044206
11175.224288,7550.100608,8586.388927,-73851.606007
11175.226851,-9622.677246,8290.306550,-75383.797003
11175.229415,-13175.665768,10510.924376,-75537.016103
11175.231978,-23390.507767,-4145.153275,-79673.931792
11175.234541,-23242.466579,-1480.411884,-79520.712692
11175.237104,8438.347739,8734.430116,-75537.016103
11175.239667,19541.436869,15840.407159,-69867.909418
11175.242230,7846.182985,7105.977043,-71400.100414
11175.244793,-3997.112087,2812.782580,-75537.016103
11175.247357,-6809.894666,13767.830521,-75383.797003
11175.249920,-7105.977043,3256.906145,-75843.454302
11175.252483,-9178.553681,-3404.947333,-75690.235202
11175.255046,-10214.842000,15396.283594,-73545.167808
11175.257609,-7402.059420,5625.565159,-75843.454302
11175.260172,-148.041188,-5477.523971,-75690.235202
11175.262735,14063.912898,8586.388927,-73698.386908
11175.265299,-148.041188,-1036.288319,-75537.016103
11175.267862,-3404.947333,3552.988522,-76609.549800
11175.270425,-24278.754898,23094.425390,-77682.083497
11175.272988,-11251.130318,-7550.100608,-77528.864398
11175.275551,4737.318029,-5625.565159,-76303.111601
11175.278114,740.205942,-7550.100608,-77528.864398
11175.280677,3849.070898,22650.301825,-72779.072310
11175.283241,34641.638086,-3552.988522,-73545.167808
11175.285804,9622.677246,-18949.272115,-76762.768900
11175.288367,-20873.807564,30792.567187,-75690.235202
11175.290930,-8290.306550,8882.471304,-75077.358804
11175.293493,9622.677246,-13323.706956,-75077.358804
11175.296056,17172.777854,11103.089130,-75537.016103
11175.298619,17468.860231,-1480.411884,-74311.263306
11175.301183,7698.141797,-4589.276840,-74617.701505
11175.303746,148.041188,296.082377,-76303.111601
11175.306309,-3256.906145,10362.883188,-75690.235202
11175.308872,6661.853478,-1184.329507,-74158.044206
11175.311435,18209.066173,-11547.212695,-73085.510509
11175.313998,3404.947333,1036.288319,-76303.111601
11175.316561,11399.171507,-1036.288319,-75996.673402
11175.319125,15396.283594,-18653.189738,-74464.482406
11175.321691,1480.411884,5773.606348,-75383.797003
11175.324257,3849.070898,20725.766376,-74311.263306
11175.326824,5033.400406,-7254.018232,-76609.549800
11175.329390,-592.164754,17024.736666,-75537.016103
11175.331956,9030.512492,18801.230927,-75537.016103
11175.334523,12435.459826,-13175.665768,-76609.549800
11175.337089,-1332.370696,-11103.089130,-77222.426198
11175.339655,-10510.924376,8882.471304,-77528.864398
11175.342222,-15840.407159,9474.636058,-74617.701505
11175.344788,1332.370696,23686.590144,-72472.634111
11175.347354,-9178.553681,9622.677246,-75690.235202
11175.349921,-11695.253884,12583.501014,-76762.768900
11175.352487,6809.894666,148.041188,-75077.358804
11175.355053,7550.100608,-13915.871710,-75537.016103
11175.357620,-5477.523971,17172.777854,-75383.797003
11175.360186,-14211.954086,15100.201217,-74617.701505
11175.362753,-24426.796086,16728.654289,-77222.426198
11175.365319,-888.247130,15100.201217,-73698.386908
11175.367885,5181.441594,-4737.318029,-75383.797003
11175.370452,7254.018232,12287.418637,-73851.606007
11175.373018,26795.455100,17764.942608,-71246.881314
11175.375584,18505.148550,-1924.535449,-73085.510509
11175.378151,12139.377449,15840.407159,-74311.263306
11175.380717,-8734.430116,11991.336260,-75537.016103
11175.383283,-18505.148550,3552.988522,-76762.768900
11175.385850,-3256.906145,15396.283594,-74311.263306
11175.388416,1480.411884,4885.359217,-75843.454302
11175.390982,0.000000,3256.906145,-75537.016103
11175.393549,-12879.583391,16580.613101,-74464.482406
11175.396115,-12139.377449,13915.871710,-75690.235202
11175.398681,-5773.606348,7105.977043,-74617.701505
11175.401248,15988.448347,24574.837274,-72625.853210
11175.403814,22354.219448,-5921.647536,-74617.701505
11175.406380,-11251.130318,7698.141797,-76149.892501
11175.408947,-24130.713709,26499.372724,-77528.864398
11175.411513,-7105.977043,-17764.942608,-77222.426198
11175.414080,3997.112087,-3997.112087,-75996.673402
11175.416646,740.205942,296.082377,-76762.768900
11175.419212,15840.407159,17024.736666,-73085.510509
11175.421779,37898.544230,-5921.647536,-73085.510509
11175.424348,444.123565,-10955.047942,-77375.645298
11175.426917,-1332.370696,10658.965565,-75996.673402
11175.429486,-12139.377449,14804.118840,-75230.577904
11175.432055,296.082377,-11399.171507,-75690.235202
11175.434624,14804.118840,4589.276840,-74924.139704
11175.437193,17320.819043,14508.036463,-73851.606007
11175.439762,17468.860231,12879.583391,-70327.566716
11175.442332,11695.253884,18061.024985,-73391.948708
11175.444901,-2812.782580,-8438.347739,-77222.426198
11175.447470,-26647.413912,-18357.107362,-80746.465489
11175.450039,-23242.466579,8438.347739,-80440.027290
11175.452608,888.247130,-4441.235652,-77375.645298
11175.455177,3849.070898,-2516.700203,-75843.454302
11175.457746,9178.553681,11103.089130,-74004.825107
11175.460315,-5181.441594,4293.194464,-75537.016103
11175.462885,13175.665768,7550.100608,-74924.139704
11175.465454,12583.501014,7105.977043,-75996.673402
11175.468023,7105.977043,-24722.878463,-79061.055394
11175.470592,-18357.107362,4145.153275,-75996.673402
11175.473161,-17320.819043,18949.272115,-75843.454302
11175.475730,6365.771101,-8734.430116,-74004.825107
11175.478299,16136.489536,11103.089130,-73698.386908
11175.480868,6809.894666,9030.512492,-76609.549800
11175.483438,-2516.700203,18949.272115,-74311.263306
11175.486007,7550.100608,5329.482782,-74464.482406
11175.488576,-20725.766376,2516.700203,-75843.454302
11175.491145,-28868.031738,2960.823768,-79061.055394
11175.493714,-22946.384202,15100.201217,-75843.454302
11175.496283,-1628.453072,3997.112087,-74311.263306
11175.498852,16876.695478,2664.741391,-74311.263306
11175.501421,-148.041188,11399.171507,-74464.482406
11175.503991,-9622.677246,17912.983796,-73851.606007
11175.506560,-4145.153275,-2812.782580,-75077.358804
11175.509129,-26943.496289,-11251.130318,-81206.122788
11175.511698,-18653.189738,12139.377449,-80593.246390
11175.514267,4441.235652,19837.519246,-74311.263306
11175.516836,7698.141797,4145.153275,-74158.044206
11175.519405,-9770.718434,3849.070898,-76149.892501
11175.521974,-18505.148550,10214.842000,-73391.948708
11175.524544,-740.205942,31828.855506,-72932.291410
11175.527116,4885.359217,3108.864956,-74004.825107
11175.529687,-11251.130318,-13175.665768,-77988.521696
11175.532257,-10510.924376,19097.313304,-75537.016103
11175.534828,-1036.288319,9918.759623,-73545.167808
11175.537398,17468.860231,21614.013506,-70634.004916
11175.539969,18209.066173,-7550.100608,-74004.825107
11175.542539,-11103.089130,11991.336260,-76303.111601
11175.545110,-22058.137072,30496.484810,-77069.207099
11175.547680,-5033.400406,-21021.848753,-77988.521696
11175.550251,296.082377,-5181.441594,-77222.426198
11175.552821,-296.082377,-15544.324782,-77988.521696
11175.555392,-19393.395680,23834.631332,-75383.797003
11175.557962,17320.819043,9030.512492,-75077.358804
11175.560533,24722.878463,-18505.148550,-75537.016103
11175.563103,-3997.112087,15100.201217,-76609.549800
11175.565674,-8734.430116,14359.995275,-75077.358804
11175.568244,3849.070898,-11399.171507,-73698.386908
11175.570815,7846.182985,-18061.024985,-77528.864398
11175.573385,-16432.571912,8438.347739,-79061.055394
11175.575956,8882.471304,36270.091158,-69714.690318
11175.578526,45004.521274,15692.365970,-67416.403824
11175.581097,28275.866984,4589.276840,-70174.347617
11175.583667,27387.619854,-2368.659014,-70327.566716
11175.586238,-18061.024985,-9178.553681,-84117.285680
11175.588808,-10807.006753,-2960.823768,-77375.645298
11175.591378,2664.741391,17468.860231,-74158.044206
11175.593949,24574.837274,-3552.988522,-73238.729609
11175.596519,12287.418637,-4737.318029,-74158.044206
11175.599090,-13915.871710,6957.935855,-77682.083497
11175.601660,-5181.441594,13471.748144,-73851.606007
11175.604231,29608.237680,20429.683999,-73851.606007
11175.606801,15988.448347,-19245.354492,-78754.617194
11175.609372,-13619.789333,-5329.482782,-78294.959896
11175.611942,-17468.860231,8734.430116,-75996.673402
11175.614513,-21465.972318,3256.906145,-74924.139704
11175.617083,-21021.848753,19541.436869,-76762.768900
11175.619654,-33753.390955,4293.194464,-79827.150892
11175.622224,-28868.031738,8734.430116,-77375.645298
11175.624795,11547.212695,13471.748144,-72166.195912
11175.627365,21614.013506,-23982.672521,-74004.825107
11175.629937,5921.647536,12879.583391,-74924.139704
11175.632509,-11843.295072,24722.878463,-75537.016103
11175.635081,2516.700203,16728.654289,-73391.948708
11175.637652,7254.018232,3849.070898,-74464.482406
11175.640224,-12435.459826,-740.205942,-76456.330700
11175.642796,-1036.288319,22354.219448,-73698.386908
11175.645367,17320.819043,-5033.400406,-72472.634111
11175.647939,15692.365970,7846.182985,-79061.055394
11175.650511,-31532.773129,15692.365970,-81818.999186
11175.653083,-18653.189738,14063.912898,-76456.330700
11175.655654,1332.370696,9474.636058,-71706.538613
11175.658226,-2960.823768,28423.908173,-74617.701505
11175.660798,-2220.617826,2960.823768,-76303.111601
11175.663369,-10955.047942,-3108.864956,-78448.178995
11175.665941,-12583.501014,11547.212695,-76456.330700
11175.668513,-9178.553681,9770.718434,-74924.139704
11175.671085,14656.077652,23094.425390,-71093.662214
11175.673656,13027.624579,-13767.830521,-73698.386908
11175.676228,-16580.613101,11251.130318,-75843.454302
11175.678800,-26203.290347,22798.343014,-76609.549800
11175.681372,-10214.842000,-444.123565,-77835.302597
11175.683943,1776.494261,-10955.047942,-76149.892501
11175.686515,1184.329507,-10658.965565,-76762.768900
11175.689087,1776.494261,24130.713709,-73698.386908
11175.691658,33901.432144,1480.411884,-72779.072310
11175.694230,17912.983796,-12879.583391,-76456.330700
11175.696802,-16284.530724,22650.301825,-76915.987999
11175.699374,-11251.130318,7402.059420,-76149.892501
11175.701945,5477.523971,-16136.489536,-74464.482406
11175.704517,-296.082377,-9178.553681,-77988.521696
11175.707089,2516.700203,31976.896694,-74464.482406
11175.709660,42191.738694,11843.295072,-70480.785816
11175.712232,6365.771101,-296.082377,-73391.948708
11175.714804,-2664.741391,-23390.507767,-76149.892501
11175.717376,-21614.013506,-11399.171507,-80593.246390
11175.719947,-11251.130318,22946.384202,-78141.740796
11175.722519,10658.965565,-1036.288319,-76456.330700
11175.725091,15692.365970,-17024.736666,-75537.016103
11175.727662,-1184.329507,12879.583391,-74924.139704
11175.730234,-4885.359217,17024.736666,-74464.482406
11175.732807,15544.324782,-5625.565159,-74158.044206
11175.735380,4737.318029,-31828.855506,-79673.931792
11175.737953,-27091.537477,13619.789333,-77682.083497
11175.740525,-10807.006753,11103.089130,-75537.016103
11175.743098,-15100.201217,-1332.370696,-75537.016103
11175.745671,-5921.647536,-2516.700203,-75537.016103
11175.748244,-4737.318029,19837.519246,-77528.864398
11175.750817,1184.329507,36862.255912,-73085.510509
11175.753389,29164.114115,-2368.659014,-73085.510509
11175.755962,-6069.688724,-8586.388927,-74770.920605
11175.758535,-35381.844028,20873.807564,-77069.207099
11175.761108,-19245.354492,5773.606348,-76303.111601
11175.763681,6365.771101,-7846.182985,-74311.263306
11175.766254,-3701.029710,9918.759623,-77375.645298
11175.768826,-13619.789333,32272.979071,-76149.892501
11175.771399,5477.523971,8438.347739,-74464.482406
11175.773972,1036.288319,-14508.036463,-75537.016103
11175.776545,-28868.031738,-13175.665768,-80133.589091
11175.779118,-9622.677246,35529.885216,-77528.864398
11175.781690,8438.347739,30496.484810,-74311.263306
11175.784263,-1184.329507,-11547.212695,-76149.892501
11175.786836,-20725.766376,5329.482782,-77375.645298
11175.789409,-14211.954086,33605.349767,-73238.729609
11175.791982,6365.771101,12583.501014,-73085.510509
11175.794554,15840.407159,-7550.100608,-73085.510509
11175.797127,-18801.230927,2220.617826,-79367.493593
11175.799700,-21465.972318,17320.819043,-76456.330700
11175.802273,9178.553681,592.164754,-72166.195912
11175.804846,-5625.565159,-13323.706956,-76303.111601
11175.807418,-3404.947333,8882.471304,-75383.797003
11175.809991,-25167.002028,29904.320057,-78754.617194
11175.812564,-1332.370696,-13027.624579,-76915.987999
11175.815137,2072.576638,-14952.160028,-76609.549800
11175.817711,-4145.153275,888.247130,-77222.426198
11175.820284,16728.654289,24574.837274,-72012.976812
11175.822857,41155.450375,-14359.995275,-71706.538613
11175.825430,3552.988522,-8290.306550,-76456.330700
11175.828004,-22650.301825,37454.420665,-77069.207099
11175.830577,-592.164754,-5033.400406,-75690.235202
11175.833150,6809.894666,-19985.560434,-75230.577904
11175.835723,-7550.100608,7550.100608,-77375.645298
11175.838297,-8142.265362,11843.295072,-78601.398095
11175.840870,-148.041188,7105.977043,-74617.701505
11175.843443,1776.494261,6365.771101,-72779.072310
11175.846016,-5477.523971,15840.407159,-74311.263306
11175.848590,6513.812290,1776.494261,-75690.235202
11175.851163,2664.741391,-8586.388927,-78754.617194
11175.853736,1924.535449,-8882.471304,-77988.521696
11175.856309,2368.659014,3404.947333,-75996.673402
11175.858883,2812.782580,3701.029710,-75230.577904
11175.861456,2516.700203,3997.112087,-74004.825107
11175.864029,888.247130,17320.819043,-75690.235202
11175.866603,33309.267390,-10066.800811,-75383.797003
11175.869176,12287.418637,-7550.100608,-74311.263306
11175.871749,-13619.789333,-2220.617826,-79214.274493
11175.874322,-17468.860231,3849.070898,-76915.987999
11175.876896,-16432.571912,8438.347739,-73698.386908
11175.879469,2960.823768,22650.301825,-73698.386908
11175.882042,-6957.935855,26647.413912,-74617.701505
11175.884615,12583.501014,17320.819043,-74311.263306
11175.887189,9622.677246,-13767.830521,-76609.549800
11175.889762,-9030.512492,-4885.359217,-76303.111601
11175.892335,-14952.160028,23094.425390,-74924.139704
11175.894908,-7402.059420,7402.059420,-73698.386908
11175.897482,-7402.059420,-6365.771101,-77835.302597
11175.900055,-22502.260637,20133.601622,-78754.617194
11175.902628,-8438.347739,21762.054695,-73851.606007
11175.905201,26647.413912,17024.736666,-69714.690318
11175.907775,26795.455100,-11991.336260,-70940.443115
11175.910348,22650.301825,-888.247130,-72932.291410
11175.912921,23094.425390,9326.594869,-70480.785816
11175.915494,4145.153275,4145.153275,-72166.195912
11175.918068,5033.400406,25611.125593,-70940.443115
11175.920641,6365.771101,4885.359217,-75077.358804
11175.923215,-22650.301825,4441.235652,-78907.836294
11175.925788,-23538.548956,24574.837274,-76915.987999
11175.928362,-7994.224174,6217.729913,-75537.016103
11175.930935,592.164754,-9326.594869,-78141.740796
11175.933509,-27831.743419,10955.047942,-75843.454302
11175.936082,-21317.931130,25759.166782,-74311.263306
11175.938656,-2516.700203,23094.425390,-74158.044206
11175.941229,11843.295072,-24870.919651,-77222.426198
11175.943803,3849.070898,2812.782580,-78601.398095
11175.946376,-1184.329507,740.205942,-77069.207099
11175.948950,21465.972318,-18505.148550,-74004.825107
11175.951523,-2220.617826,-10214.842000,-75996.673402
11175.954097,-20429.683999,23686.590144,-76303.111601
11175.956670,296.082377,26647.413912,-74004.825107
11175.959244,18505.148550,-26795.455100,-75690.235202
11175.961817,-2368.659014,-2516.700203,-76915.987999
11175.964391,-7994.224174,13471.748144,-77528.864398
11175.966964,-2072.576638,13767.830521,-74924.139704
11175.969538,23834.631332,2368.659014,-71706.538613
11175.972111,13323.706956,4885.359217,-73698.386908
11175.974685,7254.018232,21465.972318,-72166.195912
11175.977258,21762.054695,-7105.977043,-69714.690318
11175.979832,5773.606348,-18949.272115,-77528.864398
11175.982405,-7254.018232,3256.906145,-80899.684589
11175.984978,2960.823768,-2368.659014,-77375.645298
11175.987552,10955.047942,-1776.494261,-74004.825107
11175.990125,5181.441594,6365.771101,-72779.072310
11175.992699,-7550.100608,27979.784608,-74464.482406
11175.995272,31088.649564,3256.906145,-73851.606007
11175.997846,21021.848753,-21910.095883,-78754.617194
11176.000419,7698.141797,-17764.942608,-77375.645298
11176.002993,-4145.153275,14359.995275,-74770.920605
11176.005566,-14211.954086,11399.171507,-71553.319513
11176.008140,-3404.947333,16432.571912,-72625.853210
11176.010713,-20429.683999,16580.613101,-76762.768900
11176.013287,-10362.883188,19541.436869,-77835.302597
11176.015860,13915.871710,-3701.029710,-75537.016103
11176.018434,15840.407159,-16284.530724,-72779.072310
11176.021007,-8882.471304,21465.972318,-74004.825107
11176.023581,-14508.036463,14359.995275,-75537.016103
11176.026155,-14804.118840,-9474.636058,-77528.864398
11176.028728,-22354.219448,8882.471304,-73698.386908
11176.031302,-3552.988522,21317.931130,-73391.948708
11176.033876,21169.889941,27683.702231,-70940.443115
11176.036449,7105.977043,-20873.807564,-77222.426198
11176.039023,-21614.013506,-2812.782580,-82431.875585
11176.041596,-33013.185013,24278.754898,-82278.656485
11176.044170,-3701.029710,5329.482782,-74770.920605
11176.046744,-6661.853478,8142.265362,-72625.853210
11176.049317,-19245.354492,23834.631332,-75077.358804
11176.051891,296.082377,16728.654289,-73238.729609
11176.054465,10066.800811,-15840.407159,-75996.673402
11176.057038,-5181.441594,-1036.288319,-77528.864398
11176.059612,-3849.070898,39971.120868,-72625.853210
11176.062186,2664.741391,22206.178260,-74004.825107
11176.064759,12731.542202,-8882.471304,-73851.606007
11176.067333,-2812.782580,6217.729913,-76915.987999
11176.069907,-10214.842000,11695.253884,-78294.959896
11176.072480,5773.606348,-6809.894666,-75383.797003
11176.075054,10066.800811,-22206.178260,-76609.549800
11176.077627,-5329.482782,25018.960840,-74464.482406
11176.080201,17468.860231,10066.800811,-74311.263306
11176.082775,15988.448347,-14508.036463,-75690.235202
11176.085348,-12731.542202,12731.542202,-77988.521696
11176.087922,-15840.407159,12879.583391,-77835.302597
11176.090496,3552.988522,-8290.306550,-75077.358804
11176.093069,4589.276840,-22354.219448,-75996.673402
11176.095643,-20429.683999,-6513.812290,-80286.808190
11176.098217,-21465.972318,9474.636058,-77375.645298
11176.100790,-888.247130,5625.565159,-75690.235202
11176.103364,13619.789333,-5625.565159,-72472.634111
11176.105937,18949.272115,592.164754,-73391.948708
11176.108511,-3404.947333,1036.288319,-78601.398095
11176.111085,-1036.288319,-5625.565159,-77528.864398
11176.113658,1480.411884,1036.288319,-76149.892501
11176.116232,-592.164754,4589.276840,-75537.016103
11176.118806,5921.647536,20873.807564,-72319.415011
11176.121379,39526.997303,2664.741391,-72166.195912
11176.123952,16728.654289,-20873.807564,-79061.055394
11176.126525,3552.988522,-8438.347739,-78294.959896
11176.129098,-6809.894666,11843.295072,-75843.454302
11176.131671,-17764.942608,10658.965565,-72319.415011
11176.134244,-4441.235652,17912.983796,-72625.853210
11176.136817,-13471.748144,21762.054695,-76149.892501
11176.139390,3849.070898,23094.425390,-76609.549800
11176.141963,13471.748144,-6365.771101,-76303.111601
11176.144536,3997.112087,-14063.912898,-74158.044206
11176.147109,-12287.418637,21910.095883,-74464.482406
11176.149682,-11695.253884,12139.377449,-74617.701505
11176.152254,-6365.771101,4589.276840,-75383.797003
11176.154827,-5033.400406,22502.260637,-77069.207099
11176.157400,296.082377,21910.095883,-73238.729609
11176.159973,20429.683999,13027.624579,-73085.510509
11176.162546,-6809.894666,-31088.649564,-80899.684589
11176.165119,-33013.185013,-24574.837274,-84270.504780
11176.167692,-24278.754898,19541.436869,-78601.398095
11176.170265,2516.700203,30496.484810,-70634.004916
11176.172838,16432.571912,4441.235652,-70480.785816
11176.175411,-14211.954086,1036.288319,-77835.302597
11176.177984,-34345.555709,17320.819043,-80133.589091
11176.180557,-15692.365970,13323.706956,-77069.207099
11176.183130,13915.871710,-6661.853478,-73698.386908
11176.185703,-11103.089130,22058.137072,-73851.606007
11176.188276,-24130.713709,29312.155303,-76456.330700
11176.190848,7254.018232,17024.736666,-72779.072310
11176.193421,19245.354492,-15100.201217,-75383.797003
11176.195994,9770.718434,5477.523971,-76915.987999
11176.198567,-2812.782580,-3701.029710,-77222.426198
11176.201140,10658.965565,-28868.031738,-76456.330700
11176.203713,-23834.631332,-2368.659014,-77988.521696
11176.206286,-20281.642811,28868.031738,-78141.740796
11176.208859,17172.777854,13471.748144,-74311.263306
11176.211432,20577.725188,-19245.354492,-75077.358804
11176.214005,-7105.977043,7994.224174,-77528.864398
11176.216578,-7994.224174,4589.276840,-76303.111601
11176.219151,1776.494261,-10807.006753,-75843.454302
11176.221724,34049.473332,14804.118840,-71093.662214
11176.224297,8734.430116,-3997.112087,-76149.892501
11176.226869,-14211.954086,7402.059420,-75843.454302
11176.229442,-23242.466579,4737.318029,-79673.931792
11176.232015,1036.288319,-5181.441594,-78754.617194
11176.234588,10510.924376,296.082377,-77222.426198
11176.237160,2664.741391,7698.141797,-77069.207099
11176.239733,7698.141797,6661.853478,-72932.291410
11176.242306,9030.512492,2812.782580,-73698.386908
11176.244878,9622.677246,-19837.519246,-77528.864398
11176.247451,-7698.141797,7254.018232,-74770.920605
11176.250024,888.247130,10807.006753,-78754.617194
11176.252597,-33013.185013,-1036.288319,-79673.931792
11176.255169,-18209.066173,8734.430116,-76149.892501
11176.257742,7846.182985,17320.819043,-73391.948708
11176.260315,9326.594869,27091.537477,-71246.881314
11176.262888,20281.642811,10658.965565,-74464.482406
11176.265460,-7994.224174,-8290.306550,-76915.987999
11176.268033,-33901.432144,10658.965565,-78294.959896
11176.270606,-19393.395680,10362.883188,-76149.892501
11176.273178,5329.482782,-740.205942,-72472.634111
11176.275751,10362.883188,10807.006753,-75077.358804
11176.278324,6069.688724,5181.441594,-75843.454302
11176.280897,-6513.812290,13619.789333,-73391.948708
11176.283469,10658.965565,16728.654289,-71706.538613
11176.286042,-4145.153275,-16580.613101,-77682.083497
11176.288615,-26203.290347,-9622.677246,-83810.847481
11176.291188,-33901.432144,25167.002028,-81206.122788
11176.293760,-28275.866984,20429.683999,-75996.673402
11176.296333,-5625.565159,19837.519246,-73238.729609
11176.298906,-6513.812290,19245.354492,-75843.454302
11176.301478,-10510.924376,2220.617826,-77375.645298
11176.304051,-14211.954086,740.205942,-77528.864398
11176.306624,-1184.329507,-9030.512492,-75690.235202
11176.309197,-23834.631332,13915.871710,-75077.358804
11176.311769,-7698.141797,25315.043216,-73851.606007
11176.314342,-4737.318029,17616.901420,-74311.263306
11176.316915,11399.171507,-19985.560434,-77375.645298
11176.319488,11251.130318,2220.617826,-76915.987999
11176.322060,3849.070898,-7254.018232,-76762.768900
11176.324633,15988.448347,-23242.466579,-75537.016103
11176.327206,-16876.695478,-3108.864956,-77069.207099
11176.329778,-24722.878463,25907.207970,-77375.645298
11176.332349,6957.935855,19393.395680,-74158.044206
11176.334921,19541.436869,-19837.519246,-75230.577904
11176.337493,-4145.153275,0.000000,-77375.645298
11176.340065,-12287.418637,1480.411884,-77069.207099
11176.342637,14359.995275,-3997.112087,-73238.729609
11176.345209,26943.496289,16284.530724,-72779.072310
11176.347781,1332.370696,-1628.453072,-78141.740796
11176.350352,-21169.889941,-4885.359217,-78448.178995
11176.352924,1184.329507,5033.400406,-75077.358804
11176.355496,15248.242405,-1332.370696,-75077.358804
11176.358068,3997.112087,-6069.688724,-79214.274493
11176.360640,4589.276840,-2812.782580,-76303.111601
11176.363212,2072.576638,-1036.288319,-73698.386908
11176.365784,1924.535449,17024.736666,-72625.853210
11176.368355,22354.219448,22650.301825,-73391.948708
11176.370927,19689.478057,-20873.807564,-78601.398095
11176.373499,-5773.606348,-9474.636058,-80133.589091
11176.376071,-25167.002028,6957.935855,-78448.178995
11176.378643,-17468.860231,9178.553681,-73238.729609
11176.381215,-18801.230927,22206.178260,-74311.263306
11176.383787,-24870.919651,12435.459826,-77222.426198
11176.386358,-21021.848753,18801.230927,-78448.178995
11176.388930,5033.400406,5181.441594,-76762.768900
11176.391502,19689.478057,-20133.601622,-73085.510509
11176.394074,5033.400406,15692.365970,-72166.195912
11176.396646,-8142.265362,16284.530724,-74464.482406
11176.399218,-7550.100608,15692.365970,-74464.482406
11176.401790,20577.725188,9770.718434,-73238.729609
11176.404361,-14211.954086,-25315.043216,-80593.246390
11176.406933,-54035.033766,0.000000,-81359.341888
11176.409505,-20873.807564,4293.194464,-80440.027290
11176.412077,35233.802839,740.205942,-67263.184724
11176.414649,-12287.418637,-4737.318029,-75230.577904
11176.417221,-25907.207970,21762.054695,-77835.302597
11176.419793,2220.617826,11251.130318,-74311.263306
11176.422364,1776.494261,-2220.617826,-76609.549800
11176.424936,-19689.478057,17616.901420,-77988.521696
11176.427508,-20577.725188,3552.988522,-77069.207099
11176.430080,-18801.230927,22650.301825,-74770.920605
11176.432651,6957.935855,13027.624579,-74464.482406
11176.435223,12435.459826,3108.864956,-74617.701505
11176.437794,6365.771101,13619.789333,-75690.235202
11176.440366,2516.700203,-1776.494261,-75996.673402
11176.442937,3849.070898,-14656.077652,-77222.426198
11176.445509,444.123565,-24278.754898,-78141.740796
11176.448080,-27831.743419,17320.819043,-76456.330700
11176.450652,-6513.812290,18357.107362,-76609.549800
11176.453223,18357.107362,-740.205942,-75537.016103
11176.455795,7846.182985,-740.205942,-77375.645298
11176.458366,-6661.853478,9622.677246,-77528.864398
11176.460938,-4885.359217,-6661.853478,-75537.016103
11176.463509,9918.759623,-7550.100608,-74464.482406
11176.466081,11843.295072,19097.313304,-74004.825107
11176.468652,5181.441594,1184.329507,-76149.892501
11176.471224,-1036.288319,7994.224174,-72932.291410
11176.473795,-3849.070898,-2516.700203,-76609.549800
11176.476367,14656.077652,1036.288319,-75843.454302
11176.478938,4885.359217,-2368.659014,-79214.274493
11176.481510,7550.100608,-5625.565159,-75383.797003
11176.484081,8734.430116,1036.288319,-72932.291410
11176.486653,-10066.800811,-1776.494261,-76303.111601
11176.489224,-12879.583391,22058.137072,-78141.740796
11176.491795,9918.759623,-8290.306550,-78907.836294
11176.494367,14211.954086,-20577.725188,-78601.398095
11176.496938,4145.153275,15692.365970,-74924.139704
11176.499510,-16580.613101,9474.636058,-73238.729609
11176.502081,-13915.871710,19541.436869,-73085.510509
11176.504653,-29312.155303,1924.535449,-77528.864398
11176.507224,-39230.914926,13619.789333,-79827.150892
11176.509796,-1332.370696,21465.972318,-75690.235202
11176.512367,26499.372724,-21762.054695,-73085.510509
11176.514939,10807.006753,3552.988522,-73545.167808
11176.517510,-8290.306550,18061.024985,-75383.797003
11176.520082,-6661.853478,16136.489536,-75077.358804
11176.522653,21169.889941,12435.459826,-72319.415011
11176.525225,34937.720462,16876.695478,-68948.594820
11176.527796,11547.212695,5181.441594,-73085.510509
11176.530368,15100.201217,-7698.141797,-73391.948708
11176.532939,28423.908173,9178.553681,-68642.156621
11176.535511,-10955.047942,11251.130318,-75690.235202
11176.538081,-22502.260637,10955.047942,-77375.645298
11176.540652,-22502.260637,21762.054695,-78448.178995
11176.543222,7550.100608,14804.118840,-74158.044206
11176.545792,2220.617826,592.164754,-75996.673402
11176.548363,-8142.265362,-296.082377,-77835.302597
11176.550933,-23982.672521,-6513.812290,-74924.139704
11176.553503,-19245.354492,22058.137072,-73085.510509
11176.556074,-1480.411884,20725.766376,-73851.606007
11176.558644,11695.253884,-18061.024985,-78141.740796
11176.561214,13323.706956,-1480.411884,-77835.302597
11176.563785,5773.606348,-11695.253884,-77375.645298
11176.566355,18357.107362,-24722.878463,-75077.358804
11176.568925,22798.343014,-10658.965565,-73545.167808
11176.571496,-10066.800811,9178.553681,-75690.235202
11176.574066,-16876.695478,33457.308578,-76303.111601
11176.576636,5477.523971,-18801.230927,-76915.987999
11176.579207,3108.864956,-11399.171507,-75843.454302
11176.581777,-6513.812290,10510.924376,-75843.454302
11176.584347,23094.425390,3701.029710,-71859.757712
11176.586918,22946.384202,-2368.659014,-71859.757712
11176.589488,-1628.453072,-5181.441594,-77528.864398
11176.592058,5625.565159,-2664.741391,-72166.195912
11176.594629,12139.377449,-1480.411884,-74464.482406
11176.597199,11399.171507,-3997.112087,-77835.302597
11176.599769,2516.700203,-2072.576638,-78294.959896
11176.602340,9326.594869,-1036.288319,-74770.920605
11176.604910,-3256.906145,19393.395680,-71553.319513
11176.607480,9622.677246,21762.054695,-75077.358804
11176.610051,16580.613101,-16136.489536,-78754.617194
11176.612621,6661.853478,-11103.089130,-80133.589091
11176.615191,-13767.830521,3997.112087,-78141.740796
11176.617762,-32569.061448,11103.089130,-74311.263306
11176.620332,-6217.729913,16580.613101,-72625.853210
11176.622902,-2516.700203,30644.525999,-72625.853210
11176.625473,24130.713709,19097.313304,-73545.167808
11176.628043,9030.512492,-4293.194464,-75996.673402
11176.630613,-17616.901420,-3256.906145,-75230.577904
11176.633184,3256.906145,14063.912898,-72166.195912
11176.635754,1184.329507,15692.365970,-72319.415011
11176.638323,-1036.288319,6365.771101,-73545.167808
11176.640893,-17616.901420,18505.148550,-76762.768900
11176.643462,-4145.153275,30496.484810,-75537.016103
11176.646031,20281.642811,4441.235652,-75077.358804
11176.648601,3108.864956,-33013.185013,-77835.302597
11176.651170,-15840.407159,2516.700203,-77682.083497
11176.653740,-19985.560434,29756.278868,-75537.016103
11176.656309,-2368.659014,9178.553681,-72012.976812
11176.658878,1332.370696,-740.205942,-74004.825107
11176.661448,-7846.182985,2960.823768,-78448.178995
11176.664017,-27831.743419,7550.100608,-81052.903688
11176.666587,-2960.823768,19689.478057,-75077.358804
11176.669156,14508.036463,-9918.759623,-72012.976812
11176.671725,-19245.354492,17024.736666,-75690.235202
11176.674295,-28571.949361,33605.349767,-76915.987999
11176.676864,3256.906145,-17024.736666,-77528.864398
11176.679434,11399.171507,-10955.047942,-78141.740796
11176.682003,2812.782580,-740.205942,-77835.302597
11176.684572,18949.272115,-5181.441594,-74004.825107
11176.687142,7550.100608,-18357.107362,-73391.948708
11176.689711,-12583.501014,14952.160028,-75690.235202
11176.692281,-5921.647536,31236.690752,-75843.454302
11176.694850,12139.377449,-1776.494261,-78141.740796
11176.697419,6365.771101,-11843.295072,-74924.139704
11176.699989,-5033.400406,-10066.800811,-77069.207099
11176.702558,-15988.448347,24426.796086,-75996.673402
11176.705128,25907.207970,38638.750172,-70940.443115
11176.707697,39082.873738,-18801.230927,-71093.662214
11176.710266,5921.647536,-15840.407159,-74770.920605
11176.712836,-13471.748144,18505.148550,-77988.521696
11176.715405,3997.112087,4293.194464,-77069.207099
11176.717975,27683.702231,-12287.418637,-75230.577904
11176.720544,8290.306550,-5773.606348,-76303.111601
11176.723113,-30052.361245,-5033.400406,-77069.207099
11176.725683,-28127.825796,12287.418637,-75077.358804
11176.728252,-5773.606348,15692.365970,-75230.577904
11176.730822,12583.501014,-7846.182985,-77528.864398
11176.733391,22650.301825,6513.812290,-74770.920605
11176.735960,-2368.659014,3552.988522,-73238.729609
11176.738530,-7254.018232,13915.871710,-72166.195912
11176.741099,-23538.548956,-2664.741391,-78141.740796
11176.743668,-42339.779882,19541.436869,-79827.150892
11176.746236,-10362.883188,20429.683999,-75996.673402
11176.748805,19837.519246,-22798.343014,-73238.729609
11176.751374,12879.583391,444.123565,-72932.291410
11176.753943,1776.494261,25907.207970,-73238.729609
11176.756512,3108.864956,13323.706956,-73391.948708
11176.759081,-11103.089130,-2812.782580,-77682.083497
11176.761650,-11991.336260,8290.306550,-77528.864398
11176.764219,-5625.565159,2368.659014,-76762.768900
11176.766788,-9770.718434,2368.659014,-79520.712692
11176.769357,-16876.695478,19689.478057,-76149.892501
11176.771926,-13323.706956,8142.265362,-73545.167808
11176.774495,-1628.453072,4145.153275,-72319.415011
11176.777064,-3701.029710,11843.295072,-75077.358804
11176.779633,-9030.512492,8734.430116,-78294.959896
11176.782201,-9178.553681,-7846.182985,-79827.150892
11176.784770,-30496.484810,5625.565159,-76762.768900
11176.787339,-15100.201217,25759.166782,-72779.072310
11176.789908,-6661.853478,18209.066173,-72779.072310
11176.792477,7254.018232,-13323.706956,-77375.645298
11176.795046,9918.759623,5773.606348,-78754.617194
11176.797615,7994.224174,-7402.059420,-77988.521696
11176.800184,21465.972318,-28423.908173,-75690.235202
11176.802753,-17024.736666,1184.329507,-75537.016103
11176.805322,-18653.189738,26055.249158,-75690.235202
11176.807891,5181.441594,12139.377449,-75537.016103
11176.810460,4885.359217,-13619.789333,-79061.055394
11176.813029,-7698.141797,7994.224174,-79061.055394
11176.815597,1184.329507,4293.194464,-73698.386908
11176.818166,11991.336260,5773.606348,-71093.662214
11176.820735,8142.265362,10658.965565,-75843.454302
11176.823304,-1776.494261,-13323.706956,-76303.111601
11176.825873,9030.512492,2072.576638,-71859.757712
11176.828442,13323.706956,5773.606348,-75077.358804
11176.831011,7698.141797,-12583.501014,-78754.617194
11176.833580,3552.988522,-12731.542202,-78601.398095
11176.836149,-1036.288319,1628.453072,-75230.577904
11176.838718,-8882.471304,-11547.212695,-74311.263306
11176.841287,-24130.713709,13323.706956,-76609.549800
11176.843855,4737.318029,5033.400406,-78448.178995
11176.846422,23390.507767,-13619.789333,-77375.645298
11176.848990,25167.002028,888.247130,-73391.948708
11176.851558,-14063.912898,4145.153275,-74464.482406
11176.854126,-16136.489536,18949.272115,-73851.606007
11176.856694,-23982.672521,5329.482782,-76915.987999
11176.859262,-31976.896694,11547.212695,-78294.959896
11176.861830,-10066.800811,20429.683999,-75690.235202
11176.864398,10510.924376,-10955.047942,-74770.920605
11176.866965,13323.706956,-3256.906145,-72932.291410
11176.869533,2368.659014,14804.118840,-73085.510509
11176.872101,-2960.823768,13767.830521,-74158.044206
11176.874669,13323.706956,14656.077652,-73238.729609
11176.877237,16136.489536,2516.700203,-74158.044206
11176.879805,-8290.306550,7105.977043,-75230.577904
11176.882373,13027.624579,8734.430116,-73851.606007
11176.884940,-11695.253884,12879.583391,-75690.235202
11176.887508,-1332.370696,8882.471304,-70940.443115
11176.890076,-9474.636058,17616.901420,-72932.291410
11176.892644,-2368.659014,11843.295072,-74770.920605
11176.895212,-2220.617826,-3404.947333,-78294.959896
11176.897780,3849.070898,13471.748144,-77682.083497
11176.900348,-444.123565,-8142.265362,-73851.606007
11176.902916,-22946.384202,16876.695478,-71400.100414
11176.905483,-18209.066173,27239.578666,-72932.291410
11176.908051,7698.141797,-18061.024985,-77222.426198
11176.910619,14508.036463,-2220.617826,-79061.055394
11176.913187,6069.688724,-5625.565159,-79061.055394
11176.915755,14508.036463,9770.718434,-72932.291410
11176.918323,26055.249158,-14211.954086,-71706.538613
11176.920891,-888.247130,3404.947333,-73238.729609
11176.923458,-11547.212695,29460.196492,-76609.549800
11176.926026,1628.453072,-14508.036463,-77682.083497
11176.928594,-4589.276840,-13767.830521,-78141.740796
11176.931162,4589.276840,12583.501014,-74770.920605
11176.933730,37010.297100,9178.553681,-68335.718422
11176.936298,22206.178260,-20281.642811,-73545.167808
11176.938866,2664.741391,-5625.565159,-74004.825107
11176.941433,148.041188,22798.343014,-72319.415011
11176.944001,16136.489536,-592.164754,-75843.454302
11176.946569,11695.253884,-7846.182985,-78141.740796
11176.949136,10362.883188,-11399.171507,-76915.987999
11176.951703,-5033.400406,18653.189738,-72012.976812
11176.954270,2960.823768,29460.196492,-71553.319513
11176.956837,15692.365970,-18505.148550,-77069.207099
11176.959405,5033.400406,-8586.388927,-81052.903688
11176.961972,-6957.935855,5329.482782,-78754.617194
11176.964539,-17616.901420,7698.141797,-73391.948708
11176.967106,-2368.659014,13323.706956,-70480.785816
11176.969673,-11547.212695,27091.537477,-73545.167808
11176.972241,19541.436869,21021.848753,-73391.948708
11176.974808,9918.759623,-8734.430116,-75996.673402
11176.977375,-18949.272115,-2664.741391,-79367.493593
11176.979942,-148.041188,14804.118840,-73698.386908
11176.982510,296.082377,8734.430116,-72932.291410
11176.985077,-3256.906145,-740.205942,-73545.167808
11176.987644,-1776.494261,19985.560434,-74004.825107
11176.990211,32124.937883,22206.178260,-72012.976812
11176.992778,40119.162056,-26499.372724,-72779.072310
11176.995346,14359.995275,-8586.388927,-72166.195912
11176.997913,5921.647536,47373.180288,-70021.128517
11177.000480,4145.153275,13175.665768,-71400.100414
11177.003047,8438.347739,-11251.130318,-71859.757712
11177.005614,-15692.365970,10658.965565,-76149.892501
11177.008182,-23390.507767,21762.054695,-77682.083497
11177.010749,-7254.018232,15840.407159,-78141.740796
11177.013316,4441.235652,-19393.395680,-75230.577904
11177.015883,-17912.983796,18209.066173,-72319.415011
11177.018450,-15988.448347,32124.937883,-72166.195912
11177.021018,10807.006753,-22798.343014,-75843.454302
11177.023585,13027.624579,-11399.171507,-79673.931792
11177.026152,4737.318029,-592.164754,-79827.150892
11177.028719,15988.448347,-16284.530724,-77528.864398
11177.031287,-13323.706956,-11843.295072,-74770.920605
11177.033854,-18801.230927,17616.901420,-74770.920605
11177.036421,-888.247130,15100.201217,-75383.797003
11177.038988,8290.306550,-8586.388927,-77988.521696
11177.041555,0.000000,148.041188,-78294.959896
11177.044123,-6217.729913,-296.082377,-76303.111601
11177.046690,-12139.377449,4441.235652,-76609.549800
11177.049256,2960.823768,-7105.977043,-76915.987999
11177.051822,-3997.112087,-11695.253884,-75230.577904
11177.054388,3701.029710,14952.160028,-73391.948708
11177.056954,15396.283594,3997.112087,-75996.673402
11177.059520,13915.871710,-9178.553681,-78294.959896
11177.062086,3552.988522,-6513.812290,-78448.178995
11177.064652,-15396.283594,7550.100608,-73698.386908
11177.067217,8438.347739,27979.784608,-70174.347617
11177.069783,26943.496289,-13471.748144,-75077.358804
11177.072349,7105.977043,-12435.459826,-80593.246390
11177.074915,28423.908173,2220.617826,-76609.549800
11177.077481,-15396.283594,8882.471304,-74770.920605
11177.080047,-25907.207970,20281.642811,-71859.757712
11177.082613,-27387.619854,19541.436869,-73851.606007
11177.085179,-12879.583391,21317.931130,-77222.426198
11177.087745,8882.471304,4145.153275,-77835.302597
11177.090311,13471.748144,-18209.066173,-76609.549800
11177.092877,-148.041188,16136.489536,-74158.044206
11177.095443,148.041188,13619.789333,-72012.976812
11177.098009,-2368.659014,2516.700203,-72472.634111
11177.100575,-23982.672521,2664.741391,-79367.493593
11177.103141,-42191.738694,2220.617826,-82585.094684
11177.105707,-24574.837274,148.041188,-75537.016103
11177.108273,19689.478057,6513.812290,-72319.415011
11177.110839,10658.965565,6957.935855,-72166.195912
11177.113405,-14211.954086,3997.112087,-73545.167808
11177.115971,-11103.089130,6069.688724,-72166.195912
11177.118537,-11991.336260,15544.324782,-75537.016103
11177.121103,-6069.688724,10362.883188,-78754.617194
11177.123669,-592.164754,26943.496289,-76303.111601
11177.126235,12731.542202,1332.370696,-74464.482406
11177.128801,-7846.182985,-5181.441594,-73698.386908
11177.131367,-18209.066173,22798.343014,-74004.825107
11177.133932,-2812.782580,-1480.411884,-76915.987999
11177.136498,11399.171507,-12879.583391,-77682.083497
11177.139064,2220.617826,-14804.118840,-79061.055394
11177.141630,-2664.741391,23538.548956,-73085.510509
11177.144196,24722.878463,2368.659014,-70480.785816
11177.146762,14211.954086,-4293.194464,-72472.634111
11177.149328,-2812.782580,19837.519246,-76456.330700
11177.151893,-5181.441594,740.205942,-79980.369991
11177.154459,5181.441594,1480.411884,-76609.549800
11177.157024,18061.024985,8290.306550,-72625.853210
11177.159589,6365.771101,3108.864956,-72319.415011
11177.162154,888.247130,5181.441594,-73851.606007
11177.164720,3404.947333,-3701.029710,-71859.757712
11177.167285,2664.741391,-5181.441594,-76915.987999
11177.169850,3108.864956,5329.482782,-79214.274493
11177.172415,6809.894666,0.000000,-79061.055394
11177.174980,8586.388927,12583.501014,-71706.538613
11177.177546,33753.390955,15840.407159,-68335.718422
11177.180111,18505.148550,-13915.871710,-73698.386908
11177.182676,-8586.388927,-888.247130,-79520.712692
11177.185241,-24574.837274,3701.029710,-80746.465489
11177.187807,-14952.160028,9770.718434,-77988.521696
11177.190372,14508.036463,9030.512492,-71859.757712
11177.192937,-888.247130,13175.665768,-71093.662214
11177.195502,5181.441594,9030.512492,-73851.606007
11177.198067,-12583.501014,9474.636058,-74311.263306
11177.200633,-12879.583391,-5773.606348,-80286.808190
11177.203198,-17320.819043,15544.324782,-76762.768900
11177.205763,-3849.070898,2960.823768,-73851.606007
11177.208328,1776.494261,3404.947333,-72625.853210
11177.210894,-9770.718434,14508.036463,-76303.111601
11177.213459,-5033.400406,-5921.647536,-76915.987999
11177.216024,-740.205942,30792.567187,-73085.510509
11177.218589,5921.647536,25463.084405,-77069.207099
11177.221154,-2072.576638,-14211.954086,-77988.521696
11177.223720,-21762.054695,296.082377,-75230.577904
11177.226285,-22206.178260,19245.354492,-72472.634111
11177.228850,3108.864956,16876.695478,-70634.004916
11177.231415,6661.853478,-444.123565,-76762.768900
11177.233980,-2812.782580,23834.631332,-76915.987999
11177.236544,18061.024985,9918.759623,-74311.263306
11177.239108,592.164754,-5921.647536,-73238.729609
11177.241672,-14508.036463,10807.006753,-74004.825107
11177.244237,-12731.542202,2220.617826,-77835.302597
11177.246801,3256.906145,-2368.659014,-77988.521696
11177.249365,13175.665768,-11399.171507,-78294.959896
11177.251930,22798.343014,9770.718434,-74004.825107
11177.254494,35233.802839,-4737.318029,-69408.252119
11177.257058,1776.494261,148.041188,-72625.853210
11177.259623,-8882.471304,28571.949361,-74924.139704
11177.262187,-2220.617826,-9474.636058,-79980.369991
11177.264751,1332.370696,-16136.489536,-78294.959896
11177.267315,-26647.413912,-20873.807564,-80746.465489
11177.269880,-29608.237680,9326.594869,-77375.645298
11177.272444,1036.288319,-2516.700203,-72932.291410
11177.275008,5033.400406,-2812.782580,-72319.415011
11177.277573,6957.935855,3256.906145,-75996.673402
11177.280137,3404.947333,-3256.906145,-80593.246390
11177.282701,10955.047942,-10066.800811,-78294.959896
11177.285265,148.041188,3108.864956,-75077.358804
11177.287830,20133.601622,29460.196492,-69255.033019
11177.290394,22354.219448,-10066.800811,-72319.415011
11177.292958,444.123565,-13767.830521,-79061.055394
11177.295523,18061.024985,3256.906145,-77682.083497
11177.298087,-7105.977043,13619.789333,-73698.386908
11177.300651,-13471.748144,20281.642811,-72779.072310
11177.303215,-20133.601622,23242.466579,-71859.757712
11177.305780,-2516.700203,25167.002028,-74464.482406
11177.308344,9474.636058,6365.771101,-77222.426198
11177.310908,3404.947333,-15544.324782,-79367.493593
11177.313473,-11695.253884,17912.983796,-77222.426198
11177.316037,-4293.194464,13323.706956,-73085.510509
11177.318601,7402.059420,13027.624579,-70174.347617
11177.321166,-592.164754,26795.455100,-71706.538613
11177.323730,-4885.359217,5921.647536,-79061.055394
11177.326294,2072.576638,7254.018232,-79061.055394
11177.328858,-3552.988522,8882.471304,-79980.369991
11177.331423,-3404.947333,20577.725188,-73698.386908
11177.333987,-6513.812290,2664.741391,-72012.976812
11177.336551,-5921.647536,13915.871710,-70480.785816
11177.339114,-3849.070898,18653.189738,-73545.167808
11177.341678,-6661.853478,-13323.706956,-81359.341888
11177.344242,-33901.432144,-1036.288319,-81818.999186
11177.346806,-18505.148550,27683.702231,-74617.701505
11177.349369,6069.688724,5773.606348,-70940.443115
11177.351933,5773.606348,-3997.112087,-73545.167808
11177.354497,12583.501014,7402.059420,-76609.549800
11177.357061,22798.343014,-4885.359217,-78294.959896
11177.359624,29608.237680,-24574.837274,-77069.207099
11177.362188,-20873.807564,-3256.906145,-76456.330700
11177.364752,-22946.384202,21169.889941,-74924.139704
11177.367316,-2368.659014,11103.089130,-73545.167808
11177.369879,-1184.329507,-9622.677246,-78294.959896
11177.372443,-6365.771101,12731.542202,-79214.274493
11177.375007,-7105.977043,1332.370696,-78448.178995
11177.377571,-3701.029710,-1480.411884,-76915.987999
11177.380134,8438.347739,8734.430116,-73545.167808
11177.382698,14656.077652,-11843.295072,-70480.785816
11177.385262,11843.295072,7994.224174,-72012.976812
11177.387826,14359.995275,3701.029710,-79520.712692
11177.390389,10214.842000,-2516.700203,-79520.712692
11177.392953,11251.130318,17320.819043,-73085.510509
11177.395517,36122.049970,9326.594869,-69561.471218
11177.398081,17468.860231,-13175.665768,-71553.319513
11177.400644,-13619.789333,-888.247130,-78294.959896
11177.403208,-26795.455100,1480.411884,-81972.218286
11177.405772,-22058.137072,16284.530724,-80133.589091
11177.408336,10955.047942,6661.853478,-74004.825107
11177.410899,3256.906145,14804.118840,-70787.224015
11177.413463,3108.864956,1480.411884,-73391.948708
11177.416027,-18357.107362,12731.542202,-73391.948708
11177.418591,-15100.201217,1332.370696,-80133.589091
11177.421154,-17172.777854,14804.118840,-78754.617194
11177.423718,-3997.112087,4737.318029,-74311.263306
11177.426282,6513.812290,7254.018232,-71859.757712
11177.428846,-19985.560434,-296.082377,-76762.768900
11177.431409,-45152.562462,-3849.070898,-82278.656485
11177.433973,-13915.871710,13027.624579,-78601.398095
11177.436537,19393.395680,-740.205942,-74617.701505
11177.439071,13027.624579,13027.624579,-73698.386908
11177.441605,-18357.107362,15988.448347,-72932.291410
11177.444139,-15988.448347,-3108.864956,-72625.853210
11177.446673,-7994.224174,9030.512492,-73698.386908
11177.449208,-5033.400406,5921.647536,-77835.302597
11177.451742,-38638.750172,-5477.523971,-83197.971083
11177.454276,-29756.278868,27091.537477,-75690.235202
11177.456810,-1776.494261,7105.977043,-71246.881314
11177.459344,2960.823768,-5625.565159,-74770.920605
11177.461878,11843.295072,7994.224174,-76303.111601
11177.464412,16876.695478,-13323.706956,-78601.398095
11177.466946,25907.207970,-22354.219448,-78448.178995
11177.469480,-13767.830521,17468.860231,-75537.016103
11177.472014,-11547.212695,17912.983796,-74924.139704
11177.474549,2516.700203,-5181.441594,-72166.195912
11177.477083,-1332.370696,-4441.235652,-77222.426198
11177.479617,-9326.594869,7994.224174,-80286.808190
11177.482151,10362.883188,-2516.700203,-76915.987999
11177.484685,18949.272115,-8734.430116,-70940.443115
11177.487219,444.123565,0.000000,-73238.729609
11177.489753,-148.041188,-2516.700203,-72319.415011
11177.492287,740.205942,3404.947333,-75383.797003
11177.494821,10214.842000,6069.688724,-77528.864398
11177.497356,13323.706956,-14063.912898,-80133.589091
11177.499890,-6365.771101,10510.924376,-77069.207099
11177.502424,18357.107362,24574.837274,-70787.224015
11177.504958,19393.395680,-15396.283594,-72166.195912
11177.507492,-1332.370696,-4293.194464,-78141.740796
11177.510026,-19097.313304,9030.512492,-81206.122788
11177.512560,-7698.141797,11843.295072,-74770.920605
11177.515094,-2812.782580,14211.954086,-72779.072310
11177.517628,-17024.736666,23094.425390,-72012.976812
11177.520163,4737.318029,22798.343014,-72166.195912
11177.522697,5477.523971,592.164754,-75690.235202
11177.525231,-7105.977043,-10214.842000,-79061.055394
11177.527765,-9622.677246,18357.107362,-78294.959896
11177.530299,-296.082377,10066.800811,-74617.701505
11177.532833,10955.047942,12583.501014,-69714.690318
11177.535367,11251.130318,33161.226202,-68642.156621
11177.537901,5477.523971,2812.782580,-76915.987999
11177.540441,-19689.478057,9178.553681,-76149.892501
11177.542980,16728.654289,6809.894666,-75843.454302
11177.545520,-4589.276840,18357.107362,-73851.606007
11177.548059,-22502.260637,7994.224174,-72779.072310
11177.550598,-13027.624579,740.205942,-73391.948708
11177.553137,-9474.636058,5181.441594,-75996.673402
11177.555676,5181.441594,33753.390955,-75843.454302
11177.558215,23094.425390,2812.782580,-75077.358804
11177.560754,-1036.288319,-5181.441594,-74770.920605
11177.563293,-25315.043216,21910.095883,-73391.948708
11177.565832,-15544.324782,-2220.617826,-74924.139704
11177.568372,8882.471304,-9474.636058,-77222.426198
11177.570911,16432.571912,-9030.512492,-78448.178995
11177.573450,15100.201217,9622.677246,-76149.892501
11177.575989,18505.148550,-4145.153275,-72012.976812
11177.578528,-1924.535449,5181.441594,-71093.662214
11177.581067,-4441.235652,21762.054695,-74617.701505
11177.583606,1628.453072,-6809.894666,-78754.617194
11177.586145,-8734.430116,-11103.089130,-81359.341888
11177.588684,-7994.224174,-10362.883188,-78448.178995
11177.591224,1036.288319,5625.565159,-71400.100414
11177.593763,14359.995275,5181.441594,-69867.909418
11177.596302,5329.482782,1480.411884,-70940.443115
11177.598841,8438.347739,592.164754,-75537.016103
11177.601380,14656.077652,-10510.924376,-79520.712692
11177.603919,6809.894666,13619.789333,-77222.426198
11177.606458,31088.649564,2516.700203,-72779.072310
11177.608997,9178.553681,-5477.523971,-70480.785816
11177.611536,-12879.583391,9030.512492,-75996.673402
11177.614076,-10658.965565,5477.523971,-78294.959896
11177.616615,-1332.370696,9918.759623,-79827.150892
11177.619154,2960.823768,5477.523971,-77528.864398
11177.621693,-11547.212695,20577.725188,-72779.072310
11177.624232,-23094.425390,-2220.617826,-75537.016103
11177.626771,-33901.432144,7550.100608,-75690.235202
11177.629310,-9178.553681,25759.166782,-75537.016103
11177.631849,11251.130318,-5329.482782,-78294.959896
11177.634388,-4737.318029,-5773.606348,-75230.577904
11177.636928,-2812.782580,5477.523971,-73238.729609
11177.639467,-21614.013506,29164.114115,-73698.386908
11177.642010,-12287.418637,13767.830521,-77222.426198
11177.644554,6513.812290,17024.736666,-77375.645298
11177.647098,2960.823768,9474.636058,-79673.931792
11177.649642,-1332.370696,4293.194464,-77069.207099
11177.652185,-18357.107362,6069.688724,-74004.825107
11177.654729,-19985.560434,15988.448347,-71706.538613
11177.657273,-1036.288319,9918.759623,-72319.415011
11177.659817,14656.077652,6217.729913,-75690.235202
11177.662360,1036.288319,-8142.265362,-79367.493593
11177.664904,-27239.578666,-3256.906145,-76149.892501
11177.667448,-21614.013506,16136.489536,-73545.167808
11177.669992,-19245.354492,-5329.482782,-74770.920605
11177.672535,2368.659014,-3552.988522,-76149.892501
11177.675079,17024.736666,-5773.606348,-77835.302597
11177.677623,31384.731941,-11695.253884,-77375.645298
11177.680167,8142.265362,-11103.089130,-75537.016103
11177.682710,-9178.553681,19689.478057,-72012.976812
11177.685254,-3108.864956,18505.148550,-73238.729609
11177.687798,6957.935855,-17320.819043,-77682.083497
11177.690342,-3108.864956,11251.130318,-78294.959896
11177.692885,14063.912898,15396.283594,-73851.606007
11177.695429,18653.189738,-7846.182985,-72012.976812
11177.697973,-6809.894666,-12139.377449,-74464.482406
11177.700517,-11695.253884,11547.212695,-74464.482406
11177.703060,7550.100608,12731.542202,-75383.797003
11177.705604,22502.260637,-5921.647536,-78601.398095
11177.708148,7402.059420,4737.318029,-77835.302597
11177.710692,26351.331535,10510.924376,-72012.976812
11177.713236,20873.807564,-9030.512492,-69714.690318
11177.715779,-2220.617826,296.082377,-74311.263306
11177.718323,-18505.148550,6069.688724,-79367.493593
11177.720867,-18949.272115,18061.024985,-81206.122788
11177.723411,7698.141797,5329.482782,-77069.207099
11177.725954,-444.123565,10362.883188,-72166.195912
11177.728498,12731.542202,7550.100608,-71859.757712
11177.731042,-8438.347739,5477.523971,-74617.701505
11177.733586,-18653.189738,9030.512492,-78907.836294
11177.736129,-1924.535449,12287.418637,-78448.178995
11177.738673,-5033.400406,3404.947333,-75996.673402
11177.741217,-4441.235652,15248.242405,-72166.195912
11177.743764,19689.478057,30940.608376,-67263.184724
11177.746311,25907.207970,2960.823768,-72012.976812
11177.748858,15396.283594,-296.082377,-76303.111601
11177.751405,19393.395680,7846.182985,-73698.386908
11177.753951,5773.606348,16876.695478,-73698.386908
11177.756498,-1036.288319,10066.800811,-70940.443115
11177.759045,-15248.242405,2960.823768,-72319.415011
11177.761592,-3552.988522,9622.677246,-76149.892501
11177.764139,-35529.885216,27091.537477,-80899.684589
11177.766686,-11695.253884,14804.118840,-80899.684589
11177.769233,13471.748144,-2812.782580,-74158.044206
11177.771780,10807.006753,4293.194464,-71246.881314
11177.774327,1776.494261,10658.965565,-71859.757712
11177.776874,7402.059420,-10955.047942,-75996.673402
11177.779421,3404.947333,-16728.654289,-81206.122788
11177.781968,17912.983796,19985.560434,-75843.454302
11177.784515,28423.908173,-2960.823768,-71246.881314
11177.787062,3997.112087,-1480.411884,-71553.319513
11177.789609,-888.247130,17912.983796,-73851.606007
11177.792156,-4885.359217,15100.201217,-79673.931792
11177.794702,24426.796086,19541.436869,-73391.948708
11177.797249,44264.315332,-18949.272115,-71859.757712
11177.799796,-15100.201217,-35974.008781,-77528.864398
11177.802343,-10362.883188,20873.807564,-72472.634111
11177.804890,7105.977043,16876.695478,-71400.100414
11177.807437,25907.207970,-21021.848753,-75537.016103
11177.809984,10066.800811,-2516.700203,-81359.341888
11177.812531,-34937.720462,-18505.148550,-83964.066581
11177.815078,-34345.555709,12139.377449,-75843.454302
11177.817625,18061.024985,11843.295072,-68795.375720
11177.820172,36862.255912,-14952.160028,-72625.853210
11177.822719,26203.290347,-1036.288319,-78907.836294
11177.825266,444.123565,3404.947333,-79367.493593
11177.827813,-13619.789333,17468.860231,-74770.920605
11177.830360,-29904.320057,7550.100608,-74464.482406
11177.832907,-42487.821071,15544.324782,-77988.521696
11177.835453,-11399.171507,13915.871710,-77069.207099
11177.838000,13175.665768,-24130.713709,-77375.645298
11177.840547,-1036.288319,8734.430116,-76915.987999
11177.843094,-5033.400406,19393.395680,-74311.263306
11177.845644,14508.036463,9178.553681,-70021.128517
11177.848194,19985.560434,-1184.329507,-71400.100414
11177.850744,-4885.359217,11991.336260,-75383.797003
11177.853295,-5921.647536,9030.512492,-81818.999186
11177.855845,3552.988522,18357.107362,-76149.892501
11177.858395,3404.947333,2664.741391,-70634.004916
11177.860945,-18505.148550,9474.636058,-72779.072310
11177.863495,-21021.848753,13027.624579,-73698.386908
11177.866045,4145.153275,27831.743419,-73698.386908
11177.868595,31680.814318,2368.659014,-76149.892501
11177.871145,3552.988522,-444.123565,-76915.987999
11177.873695,-28423.908173,19097.313304,-75077.358804
11177.876245,-17912.983796,-6069.688724,-73545.167808
11177.878795,1776.494261,-9030.512492,-75690.235202
11177.881345,14063.912898,-4145.153275,-79061.055394
11177.883895,21021.848753,-14211.954086,-78907.836294
11177.886445,23094.425390,-7105.977043,-71859.757712
11177.888995,-888.247130,2812.782580,-71246.881314
11177.891545,-5921.647536,24130.713709,-74770.920605
11177.894096,9622.677246,3256.906145,-78448.178995
11177.896646,-592.164754,-10807.006753,-78907.836294
11177.899196,-17764.942608,1036.288319,-79673.931792
11177.901746,5477.523971,15692.365970,-73391.948708
11177.904296,19245.354492,-7550.100608,-69408.252119
11177.906846,148.041188,-4885.359217,-73851.606007
11177.909396,-2516.700203,8882.471304,-77988.521696
11177.911946,13175.665768,-9918.759623,-79520.712692
11177.914496,2664.741391,-23686.590144,-80440.027290
11177.917046,-7402.059420,-6809.894666,-74004.825107
11177.919596,-9918.759623,19985.560434,-72166.195912
11177.922146,13027.624579,1776.494261,-72625.853210
11177.924696,37306.379477,-5033.400406,-75383.797003
11177.927246,2220.617826,-444.123565,-79520.712692
11177.929796,-25463.084405,28571.949361,-76609.549800
11177.932346,-41451.532752,17616.901420,-74464.482406
11177.934897,-32717.102636,11103.089130,-75690.235202
11177.937447,-2072.576638,5181.441594,-77222.426198
11177.939997,11695.253884,-10807.006753,-77375.645298
11177.942547,6809.894666,16876.695478,-75843.454302
11177.945097,-592.164754,10658.965565,-73238.729609
11177.947649,-2220.617826,-4885.359217,-74311.263306
11177.950201,-148.041188,6217.729913,-72319.415011
11177.952753,13619.789333,25463.084405,-71553.319513
11177.955305,18801.230927,8290.306550,-75537.016103
11177.957857,8290.306550,-2960.823768,-77222.426198
11177.960409,-16136.489536,9622.677246,-75537.016103
11177.962961,-18357.107362,12287.418637,-70940.443115
11177.965513,-592.164754,10510.924376,-70480.785816
11177.968065,-2516.700203,29460.196492,-74311.263306
11177.970617,3256.906145,7846.182985,-81512.560987
11177.973169,-4885.359217,444.123565,-78754.617194
11177.975721,-7550.100608,4737.318029,-72932.291410
11177.978273,-7846.182985,-1036.288319,-72319.415011
11177.980825,-6365.771101,-12731.542202,-78294.959896
11177.983377,-1776.494261,-9178.553681,-80440.027290
11177.985929,18505.148550,23834.631332,-74617.701505
11177.988481,32865.143825,-6513.812290,-71553.319513
11177.991033,-4737.318029,-6069.688724,-73238.729609
11177.993585,-8586.388927,17912.983796,-75230.577904
11177.996137,4589.276840,7994.224174,-78294.959896
11177.998689,23094.425390,-8882.471304,-75996.673402
11178.001241,7105.977043,-10510.924376,-75537.016103
11178.003793,-9918.759623,9326.594869,-73698.386908
11178.006345,-2072.576638,740.205942,-71400.100414
11178.008897,-740.205942,-5329.482782,-74311.263306
11178.011449,6957.935855,-3997.112087,-78754.617194
11178.014001,1036.288319,20577.725188,-79061.055394
11178.016553,35085.761651,14359.995275,-73391.948708
11178.019105,27239.578666,-20281.642811,-71553.319513
11178.021657,-5033.400406,-1184.329507,-74617.701505
11178.024209,-21465.972318,16136.489536,-76762.768900
11178.026761,-20133.601622,5921.647536,-79980.369991
11178.029313,-1628.453072,3256.906145,-78294.959896
11178.031865,-2960.823768,22058.137072,-74004.825107
11178.034417,-5477.523971,-148.041188,-74158.044206
11178.036969,-24870.919651,7105.977043,-72319.415011
11178.039521,-19097.313304,21169.889941,-77222.426198
11178.042073,8586.388927,444.123565,-79673.931792
11178.044625,-2516.700203,2220.617826,-74464.482406
11178.047177,-7550.100608,-148.041188,-73391.948708
11178.049730,-21317.931130,4145.153275,-75690.235202
11178.052284,-8586.388927,18653.189738,-75537.016103
11178.054838,22354.219448,6661.853478,-75383.797003
11178.057392,14063.912898,-13027.624579,-77988.521696
11178.059946,-12731.542202,9326.594869,-76609.549800
11178.062499,-22206.178260,16580.613101,-72932.291410
11178.065053,-9030.512492,10510.924376,-71400.100414
11178.067607,12139.377449,11547.212695,-73698.386908
11178.070161,-8438.347739,-10066.800811,-79367.493593
11178.072714,-29608.237680,19837.519246,-79061.055394
11178.075268,-30200.402434,20281.642811,-75690.235202
11178.077822,-15248.242405,-6957.935855,-73851.606007
11178.080376,6069.688724,-2516.700203,-74770.920605
11178.082929,15396.283594,-10214.842000,-77375.645298
11178.085483,22058.137072,-17616.901420,-79214.274493
11178.088037,-2664.741391,-10214.842000,-77835.302597
11178.090591,-7698.141797,18801.230927,-73851.606007
11178.093144,-1036.288319,21021.848753,-71400.100414
11178.095698,18357.107362,-12287.418637,-75383.797003
11178.098252,3849.070898,3552.988522,-77835.302597
11178.100806,2812.782580,13027.624579,-77069.207099
11178.103359,21762.054695,3701.029710,-71859.757712
11178.105913,18209.066173,-3849.070898,-69255.033019
11178.108467,-13175.665768,-12435.459826,-77222.426198
11178.111021,-4589.276840,6809.894666,-79367.493593
11178.113574,9770.718434,14508.036463,-79214.274493
11178.116128,48853.592172,-13915.871710,-74004.825107
11178.118682,17912.983796,-13175.665768,-71859.757712
11178.121236,-17024.736666,13767.830521,-73238.729609
11178.123789,-7254.018232,9770.718434,-72319.415011
11178.126343,18653.189738,8734.430116,-76303.111601
11178.128897,6217.729913,-1480.411884,-80899.684589
11178.131451,-16728.654289,19393.395680,-77528.864398
11178.134004,-43968.232955,2960.823768,-76762.768900
11178.136558,-44708.438897,12583.501014,-71706.538613
11178.139112,-17468.860231,20577.725188,-76149.892501
11178.141666,7254.018232,-1036.288319,-79520.712692
11178.144220,-1628.453072,4589.276840,-75230.577904
11178.146773,-9030.512492,14359.995275,-72932.291410
11178.149327,29756.278868,21317.931130,-67876.061123
11178.151883,18505.148550,-4293.194464,-71859.757712
11178.154438,-35233.802839,11991.336260,-83810.847481
11178.156994,-14952.160028,13619.789333,-79980.369991
11178.159549,7105.977043,-11547.212695,-75996.673402
11178.162105,-2220.617826,18357.107362,-72012.976812
11178.164660,-18653.189738,19837.519246,-71400.100414
11178.167215,-9326.594869,5921.647536,-74617.701505
11178.169771,-7254.018232,-17468.860231,-72625.853210
11178.172326,-740.205942,-5921.647536,-78754.617194
11178.174882,-33605.349767,20133.601622,-79980.369991
11178.177437,-19541.436869,-2220.617826,-74311.263306
11178.179993,7846.182985,-7402.059420,-73391.948708
11178.182548,17172.777854,-13619.789333,-76915.987999
11178.185104,21021.848753,-14804.118840,-77835.302597
11178.187659,-10362.883188,-1036.288319,-78754.617194
11178.190215,-15100.201217,12287.418637,-76149.892501
11178.192770,-8438.347739,13027.624579,-73391.948708
11178.195326,11103.089130,-5773.606348,-78141.740796
11178.197881,-11843.295072,-7402.059420,-80746.465489
11178.200437,-22650.301825,-1332.370696,-74617.701505
11178.202992,7698.141797,6809.894666,-71093.662214
11178.205548,7402.059420,3997.112087,-70021.128517
11178.208103,-4885.359217,-5921.647536,-76303.111601
11178.210659,-3404.947333,7698.141797,-80286.808190
11178.213214,8734.430116,9918.759623,-77835.302597
11178.215770,44264.315332,1628.453072,-74158.044206
11178.218325,27239.578666,-9918.759623,-73085.510509
11178.220881,-12731.542202,-1036.288319,-75230.577904
11178.223436,-22058.137072,13915.871710,-75383.797003
11178.225992,-11695.253884,19245.354492,-76762.768900
11178.228547,6365.771101,2368.659014,-78754.617194
11178.231103,-3997.112087,16136.489536,-76915.987999
11178.233658,14952.160028,-1776.494261,-72166.195912
11178.236214,-13767.830521,10214.842000,-72779.072310
11178.238769,-15100.201217,15544.324782,-77528.864398
11178.241325,7550.100608,2516.700203,-77988.521696
11178.243880,-9770.718434,5033.400406,-74924.139704
11178.246436,-12731.542202,11547.212695,-74158.044206
11178.248991,-1332.370696,3256.906145,-72625.853210
11178.251547,4589.276840,22650.301825,-74158.044206
11178.254103,3701.029710,20281.642811,-78448.178995
11178.256660,1480.411884,-13027.624579,-78754.617194
11178.259216,-9918.759623,5033.400406,-75230.577904
11178.261773,-18505.148550,15396.283594,-71859.757712
11178.264329,-7846.182985,9918.759623,-73698.386908
11178.266886,-29460.196492,24278.754898,-78294.959896
11178.269442,-4885.359217,11547.212695,-80133.589091
11178.271999,11843.295072,1480.411884,-76456.330700
11178.274555,5773.606348,3849.070898,-73391.948708
11178.277111,3701.029710,4885.359217,-71246.881314
11178.279668,1776.494261,-6365.771101,-74924.139704
11178.282224,3256.906145,-14804.118840,-80133.589091
11178.284781,22502.260637,6957.935855,-76149.892501
11178.287337,25018.960840,-7846.182985,-72625.853210
11178.289894,4441.235652,11103.089130,-69867.909418
11178.292450,-3849.070898,15988.448347,-74617.701505
11178.295007,9918.759623,9918.759623,-80440.027290
11178.297563,23982.672521,-7105.977043,-75537.016103
11178.300120,11547.212695,-17172.777854,-73238.729609
11178.302676,2812.782580,2220.617826,-70787.224015
11178.305233,1184.329507,13619.789333,-69714.690318
11178.307789,9178.553681,-5625.565159,-76762.768900
11178.310346,14359.995275,-2664.741391,-79673.931792
11178.312902,-3997.112087,-19541.436869,-82431.875585
11178.315459,-25315.043216,4589.276840,-77069.207099
11178.318015,2220.617826,10362.883188,-71093.662214
11178.320571,24130.713709,-7550.100608,-71553.319513
11178.323128,27979.784608,-6217.729913,-74617.701505
11178.325684,-4441.235652,1628.453072,-76762.768900
11178.328241,-19097.313304,18061.024985,-77375.645298
11178.330797,-43672.150578,11991.336260,-75383.797003
11178.333354,-37010.297100,18801.230927,-76456.330700
11178.335910,-3997.112087,4145.153275,-76609.549800
11178.338467,7846.182985,-19689.478057,-78754.617194
11178.341023,-1184.329507,23094.425390,-75383.797003
11178.343580,-7698.141797,6365.771101,-72932.291410
11178.346136,9770.718434,-5773.606348,-72625.853210
11178.348693,296.082377,4441.235652,-72472.634111
11178.351249,-15544.324782,24130.713709,-79367.493593
11178.353806,-10955.047942,10955.047942,-80746.465489
11178.356363,148.041188,-12731.542202,-78448.178995
11178.358920,3997.112087,4737.318029,-70940.443115
11178.361478,-30052.361245,9622.677246,-74464.482406
11178.364035,-18505.148550,34049.473332,-72932.291410
11178.366593,34641.638086,-3849.070898,-74004.825107
11178.369150,9030.512492,-7254.018232,-78754.617194
11178.371708,-31532.773129,24574.837274,-78601.398095
11178.374265,-22798.343014,-3701.029710,-75077.358804
11178.376822,6957.935855,-10658.965565,-73085.510509
11178.379380,17172.777854,-6661.853478,-77528.864398
11178.381937,16876.695478,-14656.077652,-78907.836294
11178.384495,-5921.647536,-5329.482782,-77835.302597
11178.387052,-9918.759623,9622.677246,-74464.482406
11178.389610,148.041188,16580.613101,-73085.510509
11178.392167,13767.830521,-1628.453072,-79367.493593
11178.394724,1924.535449,5921.647536,-77835.302597
11178.397282,-5773.606348,-8586.388927,-75383.797003
11178.399839,2368.659014,5477.523971,-72319.415011
11178.402397,-6069.688724,13767.830521,-73851.606007
11178.404954,740.205942,-9030.512492,-77528.864398
11178.407511,7846.182985,-296.082377,-79214.274493
11178.410069,-8882.471304,-21169.889941,-83351.190182
11178.412626,-16432.571912,10214.842000,-77375.645298
11178.415184,9918.759623,13027.624579,-71553.319513
11178.417741,26647.413912,-17912.983796,-72932.291410
11178.420299,21614.013506,444.123565,-74311.263306
11178.422856,6661.853478,1776.494261,-78141.740796
11178.425413,-18209.066173,23538.548956,-76609.549800
11178.427971,-33753.390955,21021.848753,-74770.920605
11178.430528,-24278.754898,19985.560434,-75996.673402
11178.433086,-444.123565,3552.988522,-76303.111601
11178.435643,8586.388927,-16432.571912,-76762.768900
11178.438201,-1480.411884,19393.395680,-75537.016103
11178.440758,-3404.947333,10066.800811,-71093.662214
11178.443315,-9770.718434,14211.954086,-73391.948708
11178.445873,-11103.089130,14952.160028,-78754.617194
11178.448430,-1332.370696,-2516.700203,-78294.959896
11178.450988,4293.194464,11843.295072,-76149.892501
11178.453545,-296.082377,17616.901420,-74617.701505
11178.456103,-20281.642811,16728.654289,-73085.510509
11178.458632,-12287.418637,8142.265362,-72932.291410
11178.461161,-1628.453072,37750.503042,-71859.757712
11178.463690,12287.418637,7402.059420,-77375.645298
11178.466219,-2516.700203,-11251.130318,-79827.150892
11178.468748,-26203.290347,14508.036463,-77682.083497
11178.471278,-14804.118840,148.041188,-74924.139704
11178.473807,8438.347739,-4589.276840,-72779.072310
11178.476336,18653.189738,-9178.553681,-76762.768900
11178.478865,18061.024985,-16136.489536,-79214.274493
11178.481394,-4737.318029,-10510.924376,-77682.083497
11178.483924,-3552.988522,20133.601622,-72319.415011
11178.486453,-3552.988522,19689.478057,-75996.673402
11178.488982,11991.336260,-5033.400406,-79980.369991
11178.491511,18949.272115,-11695.253884,-75537.016103
11178.494040,6809.894666,-10807.006753,-73085.510509
11178.496569,6809.894666,296.082377,-69714.690318
11178.499099,740.205942,8734.430116,-70787.224015
11178.501628,2220.617826,-6809.894666,-78448.178995
11178.504157,8438.347739,5773.606348,-80286.808190
11178.506686,22798.343014,-14656.077652,-78294.959896
11178.509215,2368.659014,-6217.729913,-73085.510509
11178.511745,-3404.947333,14063.912898,-71093.662214
11178.514274,6957.935855,4293.194464,-72472.634111
11178.516803,29460.196492,-2664.741391,-75383.797003
11178.519332,12287.418637,1184.329507,-78141.740796
11178.521861,-15692.365970,14656.077652,-78754.617194
11178.524390,-39823.079680,888.247130,-77222.426198
11178.526920,-42635.862259,16728.654289,-75230.577904
11178.529449,-12139.377449,12287.418637,-76149.892501
11178.531978,592.164754,-14952.160028,-79520.712692
11178.534507,-6217.729913,15692.365970,-75843.454302
11178.537036,-3997.112087,17912.983796,-70634.004916
11178.539566,4145.153275,25018.960840,-72319.415011
11178.542095,-12879.583391,-12287.418637,-82585.094684
11178.544624,-22798.343014,-7698.141797,-81818.999186
11178.547153,-7254.018232,6217.729913,-75537.016103
11178.549682,-13323.706956,18505.148550,-73238.729609
11178.552212,-17320.819043,2368.659014,-73238.729609
11178.554741,-888.247130,-2072.576638,-75383.797003
11178.557270,-20725.766376,1924.535449,-76456.330700
11178.559807,-27239.578666,27091.537477,-78294.959896
11178.562342,-4737.318029,13767.830521,-75537.016103
11178.564878,18801.230927,-11843.295072,-73851.606007
11178.567414,15988.448347,8882.471304,-73545.167808
11178.569949,7105.977043,-7994.224174,-74924.139704
11178.572485,13915.871710,-13767.830521,-76762.768900
11178.575021,18061.024985,25315.043216,-73851.606007
11178.577556,11843.295072,1924.535449,-74311.263306
11178.580092,-18653.189738,4737.318029,-76915.987999
11178.582627,-1332.370696,-2960.823768,-79061.055394
11178.585163,17616.901420,-3108.864956,-76915.987999
11178.587699,11547.212695,296.082377,-73698.386908
11178.590234,5921.647536,-4589.276840,-71859.757712
11178.592770,6069.688724,1036.288319,-68182.499322
11178.595306,2516.700203,-1628.453072,-74311.263306
11178.597841,11103.089130,6069.688724,-79214.274493
11178.600377,296.082377,-24574.837274,-82738.313784
11178.602913,-24426.796086,2072.576638,-81512.560987
11178.605448,2072.576638,11991.336260,-72779.072310
11178.607984,28571.949361,-19837.519246,-71093.662214
11178.610520,33901.432144,-8586.388927,-73238.729609
11178.613055,-4589.276840,1332.370696,-77375.645298
11178.615591,-26647.413912,33605.349767,-76456.330700
11178.618126,-26647.413912,32569.061448,-73085.510509
11178.620662,7698.141797,10214.842000,-73085.510509
11178.623198,4737.318029,-4293.194464,-75383.797003
11178.625733,8734.430116,740.205942,-75996.673402
11178.628269,7105.977043,14063.912898,-73391.948708
11178.630805,-7994.224174,-8438.347739,-72779.072310
11178.633340,-18949.272115,11103.089130,-75077.358804
11178.635876,-12731.542202,22206.178260,-77375.645298
11178.638412,7994.224174,-2960.823768,-76915.987999
11178.640952,3552.988522,-13175.665768,-78754.617194
11178.643492,-14804.118840,5181.441594,-76609.549800
11178.646032,-18505.148550,26351.331535,-71400.100414
11178.648573,-5921.647536,3701.029710,-72779.072310
11178.651113,-33605.349767,10807.006753,-78448.178995
11178.653653,-21910.095883,26647.413912,-81512.560987
11178.656193,5477.523971,5477.523971,-76915.987999
11178.658733,10955.047942,-3108.864956,-73698.386908
11178.661274,6217.729913,8734.430116,-72166.195912
11178.663814,5329.482782,-6069.688724,-74004.825107
11178.666354,10955.047942,-12879.583391,-77528.864398
11178.668894,18653.189738,5773.606348,-76303.111601
11178.671435,16284.530724,-7105.977043,-73391.948708
11178.673975,-12879.583391,1480.411884,-74311.263306
11178.676515,-9918.759623,13323.706956,-78601.398095
11178.679055,-9918.759623,-1480.411884,-82585.094684
11178.681595,-16580.613101,2220.617826,-80593.246390
11178.684136,4441.235652,13767.830521,-72319.415011
11178.686676,592.164754,-296.082377,-71400.100414
11178.689216,-4885.359217,-3552.988522,-74924.139704
11178.691756,3256.906145,5329.482782,-79673.931792
11178.694297,-8438.347739,-8438.347739,-83197.971083
11178.696837,-8882.471304,8734.430116,-78601.398095
11178.699377,12139.377449,-3256.906145,-72625.853210
11178.701917,18949.272115,-14359.995275,-73238.729609
11178.704457,31828.855506,-7105.977043,-72779.072310
11178.706998,-9030.512492,12879.583391,-77835.302597
11178.709538,-16876.695478,25167.002028,-75996.673402
11178.712078,-15100.201217,31828.855506,-72472.634111
11178.714618,7846.182985,13915.871710,-73238.729609
11178.717159,-2072.576638,-4293.194464,-75383.797003
11178.719699,5033.400406,1184.329507,-76762.768900
11178.722239,6809.894666,11695.253884,-75077.358804
11178.724779,-296.082377,10658.965565,-70021.128517
11178.727319,13619.789333,30496.484810,-67569.622924
11178.729860,6069.688724,11991.336260,-74311.263306
11178.732400,-17468.860231,2220.617826,-82738.313784
11178.734940,-9326.594869,7698.141797,-80746.465489
11178.737480,-2516.700203,14656.077652,-72932.291410
11178.740021,-14211.954086,13471.748144,-71400.100414
11178.742566,-16728.654289,-1776.494261,-76609.549800
11178.745111,-41155.450375,-6069.688724,-80899.684589
11178.747656,-17320.819043,27239.578666,-77835.302597
11178.750201,8586.388927,14211.954086,-74158.044206
11178.752746,16136.489536,-12139.377449,-73238.729609
11178.755291,9918.759623,3997.112087,-73391.948708
11178.757836,3256.906145,-8142.265362,-76609.549800
11178.760381,15248.242405,-13027.624579,-77528.864398
11178.762926,24278.754898,17024.736666,-74158.044206
11178.765471,16136.489536,-4293.194464,-72779.072310
11178.768016,-18653.189738,2072.576638,-76303.111601
11178.770561,-4145.153275,13915.871710,-78907.836294
11178.773106,13027.624579,23834.631332,-75690.235202
11178.775651,32124.937883,8290.306550,-72625.853210
11178.778196,16432.571912,-29904.320057,-72012.976812
11178.780741,4441.235652,0.000000,-68795.375720
11178.783286,-6069.688724,18357.107362,-74004.825107
11178.785831,20577.725188,1776.494261,-78294.959896
11178.788376,38490.708984,-28571.949361,-80593.246390
11178.790921,-6365.771101,-10658.965565,-78141.740796
11178.793466,-21021.848753,25018.960840,-71400.100414
11178.796011,5329.482782,0.000000,-71553.319513
11178.798556,33161.226202,-15248.242405,-74311.263306
11178.801101,15544.324782,1036.288319,-77528.864398
11178.803646,-23686.590144,23242.466579,-78907.836294
11178.806191,-48705.550984,10066.800811,-77375.645298
11178.808736,-31680.814318,11399.171507,-75996.673402
11178.811281,1776.494261,6957.935855,-76149.892501
11178.813826,8142.265362,-9030.512492,-77375.645298
11178.816371,-3849.070898,7698.141797,-74617.701505
11178.818916,1332.370696,4441.235652,-70480.785816
11178.821461,11103.089130,8142.265362,-72779.072310
11178.824006,2960.823768,22946.384202,-75690.235202
11178.826551,-3701.029710,11695.253884,-79980.369991
11178.829096,-3404.947333,1628.453072,-75383.797003
11178.831641,5181.441594,2812.782580,-69714.690318
