#time,accel_x,accel_y,accel_z
10374.371292,-6365.771101,2812.782580,-76303.111601
10374.373873,-6365.771101,1924.535449,-75690.235202
10374.376455,-6217.729913,1628.453072,-76456.330700
10374.379036,-7254.018232,2220.617826,-75996.673402
10374.381617,-6957.935855,1036.288319,-76149.892501
10374.384198,-6217.729913,3404.947333,-76149.892501
10374.386780,-6513.812290,1628.453072,-76303.111601
10374.389361,-7550.100608,-4293.194464,-76609.549800
10374.391942,7698.141797,296.082377,-76762.768900
10374.394523,-2812.782580,6809.894666,-74770.920605
10374.397105,-17912.983796,-14804.118840,-74158.044206
10374.399692,-28423.908173,-13027.624579,-74924.139704
10374.402280,-6661.853478,-740.205942,-75843.454302
10374.404868,9918.759623,2072.576638,-77222.426198
10374.407456,-6809.894666,12139.377449,-76609.549800
10374.410044,-34493.596897,1184.329507,-74924.139704
10374.412631,-20133.601622,-10658.965565,-75077.358804
10374.415219,7105.977043,4293.194464,-76609.549800
10374.417807,1776.494261,-592.164754,-76915.987999
10374.420395,-296.082377,-14508.036463,-75843.454302
10374.422983,7254.018232,11547.212695,-76915.987999
10374.425570,-10066.800811,7994.224174,-76915.987999
10374.428158,-25759.166782,-6661.853478,-77222.426198
10374.430746,-11103.089130,8882.471304,-76609.549800
10374.433334,7105.977043,-740.205942,-75077.358804
10374.435922,-1480.411884,1628.453072,-74464.482406
10374.438509,16580.613101,2516.700203,-76762.768900
10374.441097,4885.359217,9622.677246,-76609.549800
10374.443685,-8882.471304,7550.100608,-76609.549800
10374.446273,-11251.130318,4737.318029,-75537.016103
10374.448860,-8734.430116,1332.370696,-74770.920605
10374.451448,-10362.883188,296.082377,-78448.178995
10374.454036,-2368.659014,5477.523971,-77069.207099
10374.456624,3256.906145,5773.606348,-77682.083497
10374.459212,-12287.418637,12435.459826,-77222.426198
10374.461799,-21910.095883,4885.359217,-75077.358804
10374.464387,-29460.196492,-6661.853478,-76303.111601
10374.466975,-6957.935855,6069.688724,-75537.016103
10374.469563,-4145.153275,5033.400406,-77069.207099
10374.472151,-2812.782580,5329.482782,-77835.302597
10374.474738,-5329.482782,7698.141797,-76609.549800
10374.477326,1924.535449,9326.594869,-74464.482406
10374.479914,4145.153275,10807.006753,-75996.673402
10374.482502,-2812.782580,5477.523971,-76762.768900
10374.485090,-13471.748144,13471.748144,-76762.768900
10374.487677,-3997.112087,-2812.782580,-75537.016103
10374.490265,6365.771101,-1924.535449,-77835.302597
10374.492853,-296.082377,9474.636058,-76762.768900
10374.495441,-10214.842000,-7994.224174,-75843.454302
10374.498029,-4145.153275,16284.530724,-75996.673402
10374.500616,5033.400406,10658.965565,-77069.207099
10374.503208,-15544.324782,10658.965565,-75537.016103
10374.505799,-19393.395680,4737.318029,-75230.577904
10374.508390,-12435.459826,-1332.370696,-75690.235202
10374.510981,4589.276840,-1036.288319,-75843.454302
10374.513572,3997.112087,4441.235652,-75996.673402
10374.516164,-9030.512492,-10955.047942,-74770.920605
10374.518755,-2812.782580,-1332.370696,-76149.892501
10374.521346,-11991.336260,10955.047942,-77528.864398
10374.523937,-31680.814318,11103.089130,-75843.454302
10374.526528,-33013.185013,-4441.235652,-73545.167808
10374.529119,-2220.617826,-5033.400406,-75383.797003
10374.531711,2960.823768,-5329.482782,-76303.111601
10374.534302,8882.471304,5181.441594,-77375.645298
10374.536893,-14359.995275,9474.636058,-77528.864398
10374.539484,-27091.537477,0.000000,-76456.330700
10374.542075,-13619.789333,-148.041188,-75077.358804
10374.544667,1924.535449,2664.741391,-74924.139704
10374.547258,-10510.924376,-1036.288319,-75383.797003
10374.549849,-13323.706956,-6217.729913,-75690.235202
10374.552440,-6809.894666,4441.235652,-76609.549800
10374.555031,-7550.100608,12287.418637,-76303.111601
10374.557623,-19245.354492,-7105.977043,-75077.358804
10374.560214,-12583.501014,4145.153275,-74158.044206
10374.562805,-6069.688724,19245.354492,-75077.358804
10374.565396,-11251.130318,23686.590144,-80746.465489
10374.567987,-17024.736666,-6069.688724,-76762.768900
10374.570579,-7105.977043,-8882.471304,-75230.577904
10374.573170,-1480.411884,11399.171507,-74311.263306
10374.575761,-19837.519246,444.123565,-75690.235202
10374.578352,-18505.148550,-9178.553681,-73698.386908
10374.580943,3552.988522,6365.771101,-75537.016103
10374.583535,-10362.883188,16876.695478,-77835.302597
10374.586126,-35677.926404,148.041188,-76762.768900
10374.588717,-17468.860231,-10658.965565,-75996.673402
10374.591308,5921.647536,8142.265362,-76456.330700
10374.593899,-1628.453072,6513.812290,-76762.768900
10374.596491,-12287.418637,10955.047942,-77682.083497
10374.599082,-26795.455100,-3108.864956,-76456.330700
10374.601673,-1776.494261,1480.411884,-75537.016103
10374.604264,7254.018232,-444.123565,-74770.920605
10374.606735,4885.359217,-7550.100608,-75537.016103
10374.609205,-11991.336260,2072.576638,-74464.482406
10374.611675,-14063.912898,-14804.118840,-75537.016103
10374.614146,6217.729913,13471.748144,-77682.083497
10374.616616,-11547.212695,18505.148550,-75996.673402
10374.619087,-15544.324782,148.041188,-73851.606007
10374.621557,-148.041188,148.041188,-74158.044206
10374.624027,19541.436869,-2072.576638,-76609.549800
10374.626498,10658.965565,740.205942,-77835.302597
10374.628968,3997.112087,2516.700203,-76915.987999
10374.631439,-5773.606348,10807.006753,-76456.330700
10374.633909,-22354.219448,21465.972318,-75077.358804
10374.636380,-30200.402434,1036.288319,-73085.510509
10374.638850,-1924.535449,-1480.411884,-75690.235202
10374.641320,11251.130318,11991.336260,-77222.426198
10374.643791,5033.400406,-4145.153275,-77375.645298
10374.646261,3108.864956,-3256.906145,-76149.892501
10374.648732,-1332.370696,2220.617826,-77375.645298
10374.651202,-1628.453072,-3256.906145,-74158.044206
10374.653672,1332.370696,-1184.329507,-76915.987999
10374.656143,444.123565,3701.029710,-78601.398095
10374.658613,-10807.006753,-3997.112087,-78294.959896
10374.661084,3256.906145,-8734.430116,-72166.195912
10374.663554,-444.123565,0.000000,-73545.167808
10374.666025,-6069.688724,5477.523971,-75690.235202
10374.668495,-4441.235652,3849.070898,-75537.016103
10374.670965,3701.029710,7402.059420,-75996.673402
10374.673436,4885.359217,10510.924376,-77528.864398
10374.675906,-4441.235652,-888.247130,-75843.454302
10374.678377,-11991.336260,10807.006753,-75843.454302
10374.680847,-10807.006753,-1036.288319,-75537.016103
10374.683317,1924.535449,296.082377,-77375.645298
10374.685788,-888.247130,11547.212695,-77375.645298
10374.688258,-11695.253884,-7846.182985,-76303.111601
10374.690729,-2664.741391,1776.494261,-76149.892501
10374.693199,444.123565,10510.924376,-76609.549800
10374.695670,-11991.336260,7254.018232,-75383.797003
10374.698140,-15100.201217,1184.329507,-75996.673402
10374.700610,1036.288319,-5033.400406,-75537.016103
10374.703081,14508.036463,5773.606348,-77069.207099
10374.705589,-4885.359217,1628.453072,-75690.235202
10374.708097,-14508.036463,-18505.148550,-74464.482406
10374.710605,1480.411884,4589.276840,-76149.892501
10374.713113,-12435.459826,10510.924376,-77835.302597
10374.715621,-32124.937883,5625.565159,-75230.577904
10374.718129,-22946.384202,-5329.482782,-75077.358804
10374.720637,5181.441594,1036.288319,-76456.330700
10374.723145,6217.729913,3701.029710,-76303.111601
10374.725653,148.041188,1036.288319,-75996.673402
10374.728161,-18949.272115,-5625.565159,-75230.577904
10374.730669,-4589.276840,-15396.283594,-76456.330700
10374.733177,13767.830521,4737.318029,-76149.892501
10374.735685,-8290.306550,6069.688724,-73698.386908
10374.738193,-27387.619854,-6069.688724,-72166.195912
10374.740701,-17912.983796,-3108.864956,-76149.892501
10374.743209,-8438.347739,-5921.647536,-77988.521696
10374.745716,-12879.583391,-17172.777854,-77069.207099
10374.748224,-9030.512492,-11991.336260,-74004.825107
10374.750732,-2516.700203,11991.336260,-72779.072310
10374.753240,7105.977043,14508.036463,-74924.139704
10374.755748,2516.700203,-7254.018232,-81052.903688
10374.758256,-3404.947333,-7254.018232,-77988.521696
10374.760764,-7254.018232,-15100.201217,-75077.358804
10374.763272,-3404.947333,-2516.700203,-74158.044206
10374.765780,-12435.459826,4885.359217,-73851.606007
10374.768288,-19097.313304,-10807.006753,-73085.510509
10374.770796,1924.535449,-4293.194464,-76303.111601
10374.773304,7105.977043,3108.864956,-78907.836294
10374.775812,-14656.077652,-148.041188,-77069.207099
10374.778320,-18209.066173,-11103.089130,-75077.358804
10374.780828,2220.617826,-8142.265362,-74770.920605
10374.783336,-296.082377,15544.324782,-75383.797003
10374.785844,-1628.453072,7402.059420,-78294.959896
10374.788352,-23686.590144,6069.688724,-77375.645298
10374.790860,-24870.919651,-3701.029710,-75690.235202
10374.793368,-3997.112087,-4145.153275,-75230.577904
10374.795876,5773.606348,4737.318029,-76456.330700
10374.798384,-11251.130318,-3108.864956,-76149.892501
10374.800892,296.082377,2516.700203,-76149.892501
10374.803400,7994.224174,14508.036463,-78754.617194
10374.805935,-11991.336260,19097.313304,-78448.178995
10374.808470,-29016.072926,4145.153275,-74924.139704
10374.811005,-14508.036463,-1480.411884,-74464.482406
10374.813540,7550.100608,1184.329507,-75537.016103
10374.816074,3997.112087,1332.370696,-76609.549800
10374.818609,1036.288319,4145.153275,-77988.521696
10374.821144,-4589.276840,19097.313304,-75537.016103
10374.823679,-24278.754898,8142.265362,-75230.577904
10374.826214,-11103.089130,-5921.647536,-75690.235202
10374.828749,5921.647536,7105.977043,-76303.111601
10374.831283,4589.276840,6217.729913,-75996.673402
10374.833818,2072.576638,2220.617826,-73085.510509
10374.836353,-9326.594869,2960.823768,-75230.577904
10374.838888,-6217.729913,-2960.823768,-74464.482406
10374.841423,-2368.659014,-6809.894666,-76303.111601
10374.843958,1036.288319,4441.235652,-77069.207099
10374.846493,-12435.459826,10955.047942,-78294.959896
10374.849027,-11695.253884,3404.947333,-75537.016103
10374.851562,-2220.617826,-7105.977043,-72932.291410
10374.854097,5921.647536,12435.459826,-76762.768900
10374.856632,-2664.741391,13619.789333,-78141.740796
10374.859167,-9178.553681,-3256.906145,-79061.055394
10374.861702,-5773.606348,10955.047942,-76915.987999
10374.864237,-444.123565,-1480.411884,-75537.016103
10374.866771,2368.659014,3552.988522,-75843.454302
10374.869306,-2960.823768,9918.759623,-76303.111601
10374.871841,-1924.535449,-4293.194464,-76915.987999
10374.874376,-10510.924376,19393.395680,-77682.083497
10374.876911,-22946.384202,-1776.494261,-76915.987999
10374.879446,-5329.482782,-740.205942,-76149.892501
10374.881981,12879.583391,-1924.535449,-74924.139704
10374.884515,23390.507767,444.123565,-76762.768900
10374.887050,9178.553681,2812.782580,-76609.549800
10374.889585,-17172.777854,-11547.212695,-74464.482406
10374.892120,-4441.235652,-7846.182985,-75843.454302
10374.894655,-7550.100608,11251.130318,-77375.645298
10374.897190,-33013.185013,1628.453072,-76303.111601
10374.899725,-31088.649564,-10362.883188,-73545.167808
10374.902259,6661.853478,888.247130,-75230.577904
10374.904794,14656.077652,9030.512492,-75843.454302
10374.907345,-14952.160028,-3701.029710,-74770.920605
10374.909897,-13915.871710,-13915.871710,-75690.235202
10374.912449,592.164754,5033.400406,-76456.330700
10374.915001,-2220.617826,18357.107362,-78294.959896
10374.917553,-29756.278868,7105.977043,-76303.111601
10374.920105,-34789.679274,-5477.523971,-73238.729609
10374.922657,-1036.288319,-2664.741391,-73698.386908
10374.925209,11695.253884,740.205942,-76456.330700
10374.927761,-5921.647536,-18505.148550,-75996.673402
10374.930313,5625.565159,-22058.137072,-73698.386908
10374.932865,4885.359217,3404.947333,-76609.549800
10374.935416,4737.318029,27979.784608,-76762.768900
10374.937968,-15840.407159,592.164754,-77222.426198
10374.940520,-19689.478057,-9326.594869,-74924.139704
10374.943072,888.247130,5329.482782,-77222.426198
10374.945624,-17616.901420,10658.965565,-78294.959896
10374.948176,-10955.047942,5625.565159,-73238.729609
10374.950728,-40267.203245,-1924.535449,-72319.415011
10374.953280,-16876.695478,-6217.729913,-74158.044206
10374.955832,21317.931130,1036.288319,-78294.959896
10374.958384,1036.288319,10658.965565,-77375.645298
10374.960936,-23686.590144,-10362.883188,-75077.358804
10374.963488,0.000000,-12287.418637,-75383.797003
10374.966040,7402.059420,16136.489536,-76762.768900
10374.968592,-22650.301825,-3256.906145,-76149.892501
10374.971144,-26055.249158,-10658.965565,-74770.920605
10374.973695,8586.388927,-5773.606348,-75537.016103
10374.976247,23538.548956,-2368.659014,-77069.207099
10374.978799,14359.995275,9326.594869,-77069.207099
10374.981351,-12879.583391,-6365.771101,-75996.673402
10374.983903,-1036.288319,1924.535449,-74924.139704
10374.986455,14063.912898,18357.107362,-77835.302597
10374.989007,-9770.718434,16284.530724,-76915.987999
10374.991559,-32421.020260,2072.576638,-74004.825107
10374.994111,-17320.819043,1184.329507,-74004.825107
10374.996663,11399.171507,3108.864956,-76762.768900
10374.999215,7846.182985,296.082377,-76762.768900
10375.001767,-5329.482782,6957.935855,-76149.892501
10375.004319,-16284.530724,-888.247130,-74770.920605
10375.006871,-1184.329507,-148.041188,-74311.263306
10375.009434,2960.823768,-1332.370696,-76762.768900
10375.011998,8734.430116,8882.471304,-77528.864398
10375.014562,-3404.947333,5033.400406,-75690.235202
10375.017125,-9474.636058,9474.636058,-77835.302597
10375.019689,-9178.553681,26943.496289,-77222.426198
10375.022252,-16876.695478,2960.823768,-76149.892501
10375.024816,-12731.542202,-5329.482782,-76303.111601
10375.027380,-14063.912898,5181.441594,-77835.302597
10375.029943,-6661.853478,4441.235652,-78601.398095
10375.032507,-8882.471304,1628.453072,-76915.987999
10375.035071,-7402.059420,6217.729913,-74617.701505
10375.037634,-1036.288319,7846.182985,-74924.139704
10375.040198,888.247130,12139.377449,-77988.521696
10375.042762,-7402.059420,13027.624579,-79214.274493
10375.045325,-6069.688724,3849.070898,-76609.549800
10375.047889,-19097.313304,-5921.647536,-73851.606007
10375.050452,-5329.482782,1036.288319,-74617.701505
10375.053016,4441.235652,4441.235652,-76303.111601
10375.055580,-2072.576638,16728.654289,-78141.740796
10375.058143,-20429.683999,7105.977043,-77222.426198
10375.060707,-14804.118840,2960.823768,-76762.768900
10375.063271,5773.606348,1036.288319,-75077.358804
10375.065834,12731.542202,-1924.535449,-76303.111601
10375.068398,3849.070898,4145.153275,-75537.016103
10375.070962,-11695.253884,-9178.553681,-74617.701505
10375.073525,-2664.741391,-6957.935855,-76915.987999
10375.076089,2072.576638,5773.606348,-77682.083497
10375.078652,-24574.837274,6809.894666,-77222.426198
10375.081216,-35677.926404,-3404.947333,-72779.072310
10375.083780,-6069.688724,-9770.718434,-73698.386908
10375.086343,6365.771101,-4885.359217,-77988.521696
10375.088907,-444.123565,888.247130,-73391.948708
10375.091471,-22650.301825,-19985.560434,-79520.712692
10375.094034,11991.336260,4441.235652,-76609.549800
10375.096598,-1332.370696,18949.272115,-79367.493593
10375.099162,-18209.066173,-6365.771101,-74311.263306
10375.101725,1332.370696,-1776.494261,-77375.645298
10375.104289,148.041188,-12879.583391,-74004.825107
10375.106853,-14656.077652,7698.141797,-78294.959896
10375.109416,20725.766376,13915.871710,-78601.398095
10375.111986,-10955.047942,12435.459826,-75077.358804
10375.114555,-4737.318029,1332.370696,-73085.510509
10375.117125,-13175.665768,18653.189738,-78141.740796
10375.119694,-12435.459826,11695.253884,-75383.797003
10375.122264,-14359.995275,-20873.807564,-77682.083497
10375.124833,6957.935855,7846.182985,-75383.797003
10375.127402,8882.471304,-9770.718434,-74464.482406
10375.129972,-9918.759623,4441.235652,-75537.016103
10375.132541,-26795.455100,11251.130318,-74617.701505
10375.135111,-28423.908173,-10807.006753,-75537.016103
10375.137680,-1480.411884,8586.388927,-77222.426198
10375.140250,-7402.059420,2516.700203,-75230.577904
10375.142819,-21910.095883,-10510.924376,-72932.291410
10375.145389,7254.018232,-8734.430116,-72472.634111
10375.147958,21910.095883,6809.894666,-78754.617194
10375.150528,-4885.359217,19245.354492,-77988.521696
10375.153097,-39526.997303,-2220.617826,-76149.892501
10375.155667,-31532.773129,-9918.759623,-74158.044206
10375.158236,6069.688724,11843.295072,-76609.549800
10375.160806,-3701.029710,3256.906145,-76762.768900
10375.163375,-148.041188,-4589.276840,-76303.111601
10375.165945,19985.560434,13175.665768,-77835.302597
10375.168514,7698.141797,18801.230927,-78294.959896
10375.171083,-26055.249158,4589.276840,-75230.577904
10375.173653,-20873.807564,444.123565,-74311.263306
10375.176222,-27239.578666,-5773.606348,-74924.139704
10375.178792,-8142.265362,7994.224174,-77375.645298
10375.181361,-1480.411884,13619.789333,-77528.864398
10375.183931,-17468.860231,-1036.288319,-75843.454302
10375.186500,-4293.194464,-1332.370696,-74158.044206
10375.189070,17172.777854,5773.606348,-77222.426198
10375.191639,296.082377,8734.430116,-78907.836294
10375.194209,-15396.283594,740.205942,-74770.920605
10375.196778,-14952.160028,4145.153275,-75383.797003
10375.199348,-14656.077652,444.123565,-73851.606007
10375.201917,-4293.194464,-4293.194464,-75690.235202
10375.204487,5625.565159,-7105.977043,-76456.330700
10375.207056,-6661.853478,888.247130,-77835.302597
10375.209626,-2072.576638,17024.736666,-75843.454302
10375.212195,-10214.842000,6069.688724,-75077.358804
10375.214769,-6365.771101,2220.617826,-75077.358804
10375.217342,-8438.347739,11843.295072,-77222.426198
10375.219916,1776.494261,-740.205942,-77988.521696
10375.222489,11843.295072,1480.411884,-77988.521696
10375.225063,3701.029710,3404.947333,-75690.235202
10375.227636,-5477.523971,-2368.659014,-74770.920605
10375.230210,-11991.336260,-1184.329507,-75537.016103
10375.232783,296.082377,7550.100608,-77069.207099
10375.235357,-2664.741391,11103.089130,-77375.645298
10375.237930,-6365.771101,14656.077652,-76456.330700
10375.240504,-19097.313304,8882.471304,-75690.235202
10375.243077,-21169.889941,-3108.864956,-74617.701505
10375.245651,592.164754,-5625.565159,-75537.016103
10375.248224,8734.430116,6957.935855,-76303.111601
10375.250798,-13471.748144,-8142.265362,-76303.111601
10375.253372,-5181.441594,-5033.400406,-75843.454302
10375.255945,0.000000,10658.965565,-77528.864398
10375.258519,-24426.796086,13175.665768,-75996.673402
10375.261092,-32865.143825,-10955.047942,-73545.167808
10375.263666,-2516.700203,-3108.864956,-75230.577904
10375.266239,9622.677246,13471.748144,-76456.330700
10375.268813,-13027.624579,-11251.130318,-75843.454302
10375.271386,-18505.148550,-3997.112087,-74311.263306
10375.273960,-21614.013506,8586.388927,-75383.797003
10375.276533,-14952.160028,1924.535449,-75230.577904
10375.279107,2516.700203,-1776.494261,-75537.016103
10375.281680,296.082377,6513.812290,-78448.178995
10375.284254,3256.906145,15988.448347,-77835.302597
10375.286827,-740.205942,20577.725188,-78141.740796
10375.289401,-17024.736666,-14952.160028,-72012.976812
10375.291974,-15544.324782,-41007.409187,-71246.881314
10375.294548,-3552.988522,3997.112087,-77528.864398
10375.297123,-2516.700203,16432.571912,-77682.083497
10375.299698,-16728.654289,-1776.494261,-76915.987999
10375.302273,-34345.555709,8438.347739,-77069.207099
10375.304849,-44264.315332,-12879.583391,-74464.482406
10375.307424,-10807.006753,-7698.141797,-74158.044206
10375.309999,7698.141797,10510.924376,-76609.549800
10375.312574,-5033.400406,-4441.235652,-76762.768900
10375.315149,-1628.453072,1776.494261,-77069.207099
10375.317724,-16136.489536,10807.006753,-76456.330700
10375.320299,-30644.525999,-6365.771101,-75537.016103
10375.322874,-13323.706956,-6957.935855,-75383.797003
10375.325450,12435.459826,0.000000,-76303.111601
10375.328025,13175.665768,3849.070898,-76149.892501
10375.330600,-15396.283594,-2812.782580,-74464.482406
10375.333175,-14359.995275,-5033.400406,-76456.330700
10375.335750,-8882.471304,12287.418637,-76456.330700
10375.338325,-7254.018232,17764.942608,-76609.549800
10375.340900,-20873.807564,-5773.606348,-74770.920605
10375.343475,-148.041188,-9178.553681,-73545.167808
10375.346051,29460.196492,-592.164754,-75843.454302
10375.348626,23982.672521,6069.688724,-77375.645298
10375.351201,-9030.512492,2812.782580,-77222.426198
10375.353776,-20725.766376,3256.906145,-75690.235202
10375.356351,-16136.489536,13619.789333,-75537.016103
10375.358926,-25018.960840,7402.059420,-75690.235202
10375.361501,-7994.224174,-6957.935855,-74464.482406
10375.364076,26647.413912,5477.523971,-76762.768900
10375.366652,15396.283594,19393.395680,-76303.111601
10375.369227,11103.089130,21465.972318,-77222.426198
10375.371802,-20725.766376,1480.411884,-72166.195912
10375.374377,-19541.436869,-20429.683999,-71093.662214
10375.376952,14063.912898,2516.700203,-79673.931792
10375.379527,8882.471304,44116.274143,-79367.493593
10375.382102,-25315.043216,-5625.565159,-77069.207099
10375.384677,-2960.823768,-9030.512492,-72472.634111
10375.387253,26647.413912,10362.883188,-75690.235202
10375.389828,26647.413912,11103.089130,-77222.426198
10375.392403,-19245.354492,6365.771101,-76609.549800
10375.394978,-28275.866984,-1036.288319,-75383.797003
10375.397553,1924.535449,0.000000,-75996.673402
10375.400128,-3849.070898,8290.306550,-76456.330700
10375.402703,-12287.418637,15544.324782,-77528.864398
10375.405278,-27239.578666,4589.276840,-76303.111601
10375.407854,-4293.194464,4589.276840,-75230.577904
10375.410429,23834.631332,4589.276840,-76915.987999
10375.413004,14359.995275,3404.947333,-77835.302597
10375.415579,-11991.336260,-740.205942,-75077.358804
10375.418154,-21317.931130,-7550.100608,-73391.948708
10375.420730,-8882.471304,2368.659014,-76609.549800
10375.423307,-21465.972318,3849.070898,-76609.549800
10375.425883,-27091.537477,-3552.988522,-73851.606007
10375.428459,1776.494261,-2812.782580,-75843.454302
10375.431035,17024.736666,17616.901420,-77528.864398
10375.433612,10214.842000,6365.771101,-77528.864398
10375.436188,-19985.560434,-16728.654289,-73851.606007
10375.438764,-5329.482782,-10807.006753,-74311.263306
10375.441340,6069.688724,11399.171507,-77375.645298
10375.443917,-15544.324782,3849.070898,-76456.330700
10375.446493,-33605.349767,-1332.370696,-72472.634111
10375.449069,-12435.459826,-9178.553681,-72319.415011
10375.451645,18061.024985,-8734.430116,-78141.740796
10375.454222,19097.313304,3997.112087,-76303.111601
10375.456798,6365.771101,-2220.617826,-75383.797003
10375.459374,2664.741391,-592.164754,-73238.729609
10375.461950,-9770.718434,18209.066173,-74617.701505
10375.464527,-3997.112087,2516.700203,-76149.892501
10375.467103,-8438.347739,7254.018232,-75383.797003
10375.469679,-22206.178260,-4737.318029,-73851.606007
10375.472255,-17024.736666,-11695.253884,-75383.797003
10375.474832,6365.771101,3701.029710,-75996.673402
10375.477408,-5181.441594,6217.729913,-74770.920605
10375.479984,-25611.125593,-3997.112087,-74924.139704
10375.482560,-20429.683999,2516.700203,-76762.768900
10375.485137,1924.535449,-14508.036463,-76915.987999
10375.487713,9770.718434,6957.935855,-77222.426198
10375.490289,-11399.171507,592.164754,-74464.482406
10375.492866,-19097.313304,-12731.542202,-74617.701505
10375.495442,-5329.482782,-4293.194464,-74924.139704
10375.498018,-8734.430116,-2220.617826,-76456.330700
10375.500594,-444.123565,13915.871710,-76915.987999
10375.503171,-15100.201217,-1924.535449,-76149.892501
10375.505748,6809.894666,148.041188,-75383.797003
10375.508325,17320.819043,15248.242405,-77375.645298
10375.510902,-8142.265362,15988.448347,-76303.111601
10375.513479,-32717.102636,-2072.576638,-74617.701505
10375.516056,-10510.924376,296.082377,-76149.892501
10375.518632,18357.107362,6365.771101,-77988.521696
10375.521209,6365.771101,5033.400406,-76762.768900
10375.523786,-10362.883188,148.041188,-75077.358804
10375.526363,-4589.276840,14211.954086,-75383.797003
10375.528940,-20281.642811,20873.807564,-77222.426198
10375.531517,-23094.425390,-6661.853478,-75690.235202
10375.534094,-5921.647536,-13323.706956,-78141.740796
10375.536671,19985.560434,-888.247130,-74924.139704
10375.539248,22946.384202,-4589.276840,-76762.768900
10375.541824,5033.400406,6365.771101,-75077.358804
10375.544401,-2072.576638,-7846.182985,-72932.291410
10375.546978,9622.677246,-6365.771101,-74770.920605
10375.549555,5773.606348,15396.283594,-76915.987999
10375.552132,-12879.583391,6069.688724,-76303.111601
10375.554709,-12287.418637,9622.677246,-72472.634111
10375.557286,1480.411884,-592.164754,-74158.044206
10375.559863,13915.871710,3701.029710,-78601.398095
10375.562440,6957.935855,17320.819043,-76609.549800
10375.565016,10807.006753,592.164754,-75537.016103
10375.567593,-2516.700203,-2072.576638,-75077.358804
10375.570170,-3108.864956,11251.130318,-76915.987999
10375.572747,-22650.301825,14359.995275,-77988.521696
10375.575324,-31088.649564,4589.276840,-74617.701505
10375.577901,-4293.194464,-5773.606348,-73698.386908
10375.580478,27535.661042,3849.070898,-76762.768900
10375.583055,14359.995275,4145.153275,-77528.864398
10375.585632,-19393.395680,-15396.283594,-74311.263306
10375.588208,-6661.853478,-11251.130318,-75077.358804
10375.590785,-5773.606348,13619.789333,-77528.864398
10375.593362,-36862.255912,2368.659014,-76609.549800
10375.595939,-39823.079680,-10214.842000,-74464.482406
10375.598516,-10658.965565,-5773.606348,-74004.825107
10375.601093,13471.748144,9178.553681,-77069.207099
10375.603670,-5921.647536,-4589.276840,-75843.454302
10375.606245,-11251.130318,-18949.272115,-74770.920605
10375.608820,5477.523971,5329.482782,-76303.111601
10375.611395,-6217.729913,10658.965565,-77835.302597
10375.613970,-27387.619854,-9030.512492,-76149.892501
10375.616545,-4145.153275,-5773.606348,-74158.044206
10375.619121,-2072.576638,-1184.329507,-74924.139704
10375.621696,-12139.377449,-13471.748144,-74158.044206
10375.624271,-6809.894666,-24130.713709,-75843.454302
10375.626846,3997.112087,2368.659014,-75996.673402
10375.629421,-2072.576638,18653.189738,-74004.825107
10375.631996,-11695.253884,-13619.789333,-75690.235202
10375.634571,-5477.523971,-17024.736666,-75996.673402
10375.637146,-1480.411884,-9178.553681,-76762.768900
10375.639722,-4145.153275,-1776.494261,-74004.825107
10375.642297,-16284.530724,-1480.411884,-73545.167808
10375.644872,-12879.583391,3701.029710,-74311.263306
10375.647447,-9326.594869,8290.306550,-77069.207099
10375.650022,-14211.954086,-15840.407159,-75537.016103
10375.652597,5477.523971,-4441.235652,-76456.330700
10375.655172,7402.059420,10362.883188,-77069.207099
10375.657747,-20133.601622,2516.700203,-74617.701505
10375.660323,-34197.514520,148.041188,-74311.263306
10375.662898,-21465.972318,-13323.706956,-74770.920605
10375.665473,15248.242405,16580.613101,-77375.645298
10375.668048,-6957.935855,8142.265362,-77222.426198
10375.670623,-9326.594869,-8882.471304,-74924.139704
10375.673198,15692.365970,11251.130318,-76762.768900
10375.675773,1332.370696,23982.672521,-77222.426198
10375.678348,-34493.596897,3997.112087,-75996.673402
10375.680924,-25611.125593,-2516.700203,-75383.797003
10375.683499,14952.160028,2072.576638,-77528.864398
10375.686074,17172.777854,7550.100608,-77682.083497
10375.688649,-6069.688724,-1480.411884,-75537.016103
10375.691224,-7402.059420,12879.583391,-74924.139704
10375.693799,-18505.148550,7698.141797,-75383.797003
10375.696374,-3997.112087,-1332.370696,-77375.645298
10375.698949,13767.830521,1036.288319,-75383.797003
10375.701525,1036.288319,-12287.418637,-73085.510509
10375.704100,9474.636058,-13767.830521,-75077.358804
10375.706675,14952.160028,8438.347739,-76456.330700
10375.709249,12435.459826,11843.295072,-77069.207099
10375.711822,-5329.482782,4145.153275,-76149.892501
10375.714396,-12583.501014,-7846.182985,-73851.606007
10375.716970,6661.853478,9030.512492,-76762.768900
10375.719544,-5329.482782,19985.560434,-77528.864398
10375.722117,-16284.530724,-2960.823768,-75077.358804
10375.724691,7550.100608,-8882.471304,-74311.263306
10375.727265,9770.718434,7550.100608,-76149.892501
10375.729839,4737.318029,1776.494261,-77375.645298
10375.732413,-8734.430116,4885.359217,-77222.426198
10375.734986,-22798.343014,10955.047942,-76303.111601
10375.737560,-14508.036463,7254.018232,-75230.577904
10375.740134,444.123565,148.041188,-74924.139704
10375.742708,15544.324782,-4145.153275,-75996.673402
10375.745282,8438.347739,-592.164754,-76149.892501
10375.747855,-10362.883188,-5921.647536,-75537.016103
10375.750429,-7402.059420,-7105.977043,-76303.111601
10375.753003,-18949.272115,6217.729913,-76303.111601
10375.755577,-34641.638086,1332.370696,-74770.920605
10375.758150,-36122.049970,-9178.553681,-74464.482406
10375.760724,-5921.647536,592.164754,-75843.454302
10375.763298,6809.894666,5921.647536,-77375.645298
10375.765872,-10658.965565,-8586.388927,-74924.139704
10375.768446,-6365.771101,-14952.160028,-74770.920605
10375.771019,3997.112087,8142.265362,-75996.673402
10375.773593,-14508.036463,6809.894666,-76762.768900
10375.776167,-25167.002028,-1332.370696,-75690.235202
10375.778741,-10955.047942,-2812.782580,-73391.948708
10375.781314,888.247130,6069.688724,-75383.797003
10375.783888,-13471.748144,-1036.288319,-77375.645298
10375.786462,-13915.871710,-10955.047942,-72625.853210
10375.789036,-888.247130,-23686.590144,-73545.167808
10375.791610,-12287.418637,6069.688724,-71706.538613
10375.794183,-1924.535449,6365.771101,-77682.083497
10375.796757,-13915.871710,2220.617826,-78754.617194
10375.799331,-24130.713709,-5921.647536,-77222.426198
10375.801905,-6513.812290,-10658.965565,-75230.577904
10375.804478,-5773.606348,13175.665768,-74924.139704
10375.807052,-23982.672521,-1776.494261,-73851.606007
10375.809626,-9918.759623,-17912.983796,-75230.577904
10375.812199,17912.983796,6809.894666,-76762.768900
10375.814771,-2072.576638,-2812.782580,-77069.207099
10375.817344,-19837.519246,-13471.748144,-74617.701505
10375.819916,-740.205942,-10658.965565,-73851.606007
10375.822489,6217.729913,4737.318029,-74770.920605
10375.825062,10362.883188,17616.901420,-77528.864398
10375.827634,-15248.242405,-10955.047942,-76609.549800
10375.830207,0.000000,1628.453072,-75843.454302
10375.832780,8734.430116,20429.683999,-77528.864398
10375.835352,-15692.365970,7994.224174,-75077.358804
10375.837925,-21614.013506,-15248.242405,-73391.948708
10375.840497,13619.789333,592.164754,-75383.797003
10375.843070,23094.425390,12879.583391,-79061.055394
10375.845643,-7994.224174,5181.441594,-78448.178995
10375.848215,-16284.530724,-740.205942,-75230.577904
10375.850788,-6069.688724,10807.006753,-76149.892501
10375.853360,3552.988522,4737.318029,-76762.768900
10375.855933,-12731.542202,4441.235652,-78141.740796
10375.858506,-25759.166782,4589.276840,-73545.167808
10375.861078,-17024.736666,-23242.466579,-72319.415011
10375.863651,16876.695478,-12879.583391,-75077.358804
10375.866223,8142.265362,296.082377,-74924.139704
10375.868796,5181.441594,-2516.700203,-70634.004916
10375.871369,13323.706956,-11399.171507,-74617.701505
10375.873941,6661.853478,23538.548956,-78448.178995
10375.876514,-16284.530724,7254.018232,-76456.330700
10375.879086,-16728.654289,-4885.359217,-76149.892501
10375.881659,3997.112087,16284.530724,-76915.987999
10375.884232,0.000000,4737.318029,-76915.987999
10375.886804,-1036.288319,-4145.153275,-76303.111601
10375.889377,-8438.347739,1332.370696,-75843.454302
10375.891949,-4589.276840,2664.741391,-76915.987999
10375.894522,4737.318029,8734.430116,-76915.987999
10375.897095,148.041188,14359.995275,-77222.426198
10375.899667,-11843.295072,11695.253884,-76149.892501
10375.902240,-20873.807564,-888.247130,-74617.701505
10375.904813,-14359.995275,-7698.141797,-74770.920605
10375.907385,-3997.112087,3108.864956,-76303.111601
10375.909958,-10510.924376,-9178.553681,-75996.673402
10375.912530,-1924.535449,-5477.523971,-74924.139704
10375.915100,4737.318029,8734.430116,-76915.987999
10375.917670,-20133.601622,10510.924376,-75843.454302
10375.920240,-23094.425390,-1924.535449,-74924.139704
10375.922810,-22798.343014,-10955.047942,-75077.358804
10375.925381,-4589.276840,4441.235652,-75996.673402
10375.927951,-8438.347739,1332.370696,-75996.673402
10375.930521,-10955.047942,-5625.565159,-74311.263306
10375.933091,-1628.453072,4589.276840,-75537.016103
10375.935662,-296.082377,4737.318029,-74004.825107
10375.938232,-16284.530724,-11399.171507,-74770.920605
10375.940802,-6365.771101,-17616.901420,-72932.291410
10375.943373,-12287.418637,-10362.883188,-74004.825107
10375.945943,2812.782580,-20873.807564,-73391.948708
10375.948513,4441.235652,-18209.066173,-75690.235202
10375.951083,5033.400406,12435.459826,-74617.701505
10375.953654,-7402.059420,13619.789333,-77988.521696
10375.956224,-18505.148550,-6365.771101,-76915.987999
10375.958794,-13767.830521,-12879.583391,-75230.577904
10375.961365,-5921.647536,1036.288319,-74770.920605
10375.963935,-11991.336260,10807.006753,-74924.139704
10375.966505,-31680.814318,-9770.718434,-75077.358804
10375.969075,-1184.329507,-6957.935855,-75077.358804
10375.971646,22354.219448,4885.359217,-77835.302597
10375.974216,-6217.729913,14656.077652,-77528.864398
10375.976786,-37898.544230,-10658.965565,-73391.948708
10375.979356,-12435.459826,-6513.812290,-74924.139704
10375.981927,12287.418637,17764.942608,-77222.426198
10375.984497,-5625.565159,11547.212695,-77682.083497
10375.987067,-11843.295072,-4145.153275,-75843.454302
10375.989638,15396.283594,8734.430116,-76762.768900
10375.992208,13471.748144,24278.754898,-77222.426198
10375.994778,-25167.002028,6513.812290,-75690.235202
10375.997348,-33013.185013,-8290.306550,-74158.044206
10375.999919,3997.112087,888.247130,-76609.549800
10376.002489,15988.448347,13323.706956,-77375.645298
10376.005059,-5329.482782,1480.411884,-76456.330700
10376.007630,-5625.565159,2072.576638,-75383.797003
10376.010200,148.041188,15840.407159,-75537.016103
10376.012770,-18357.107362,4441.235652,-76609.549800
10376.015340,-11843.295072,2812.782580,-76456.330700
10376.017908,25759.166782,-8586.388927,-76149.892501
10376.020476,10658.965565,11103.089130,-77988.521696
10376.023044,1776.494261,12287.418637,-78754.617194
10376.025612,-9030.512492,7105.977043,-75537.016103
10376.028181,-10362.883188,-17320.819043,-74924.139704
10376.030749,10955.047942,8586.388927,-75843.454302
10376.033317,1184.329507,21762.054695,-76456.330700
10376.035885,-10362.883188,-4589.276840,-74617.701505
10376.038453,6217.729913,1036.288319,-75843.454302
10376.041021,4441.235652,5625.565159,-77988.521696
10376.043589,-11843.295072,2072.576638,-76456.330700
10376.046157,-11991.336260,-6217.729913,-75996.673402
10376.048725,12139.377449,11103.089130,-75077.358804
10376.051293,12731.542202,15544.324782,-77528.864398
10376.053861,1776.494261,17616.901420,-77528.864398
10376.056429,-27387.619854,-6365.771101,-75383.797003
10376.058997,-21169.889941,-10362.883188,-73698.386908
10376.061565,-1184.329507,9918.759623,-75996.673402
10376.064133,-18061.024985,-4589.276840,-76609.549800
10376.066701,-16432.571912,-11103.089130,-74770.920605
10376.069269,10214.842000,9030.512492,-75843.454302
10376.071837,-4589.276840,17172.777854,-76456.330700
10376.074405,-29164.114115,-11843.295072,-74924.139704
10376.076973,-11547.212695,-9178.553681,-75537.016103
10376.079541,1036.288319,8438.347739,-76915.987999
10376.082109,-4293.194464,3849.070898,-76303.111601
10376.084677,-13323.706956,-3701.029710,-75690.235202
10376.087245,-6957.935855,2220.617826,-74617.701505
10376.089813,-2516.700203,888.247130,-77069.207099
10376.092381,6957.935855,6661.853478,-78141.740796
10376.094949,-2960.823768,16432.571912,-76915.987999
10376.097517,-18949.272115,16580.613101,-77682.083497
10376.100085,-23538.548956,-296.082377,-76915.987999
10376.102654,-18801.230927,-6809.894666,-74464.482406
10376.105222,148.041188,3404.947333,-76149.892501
10376.107790,-16728.654289,8734.430116,-77528.864398
10376.110358,-24130.713709,-6365.771101,-76149.892501
10376.112926,888.247130,-9030.512492,-75843.454302
10376.115494,1332.370696,5329.482782,-77222.426198
10376.118062,-13471.748144,-8586.388927,-75996.673402
10376.120628,-13323.706956,-1628.453072,-75077.358804
10376.123195,-3997.112087,4145.153275,-76609.549800
10376.125761,-5773.606348,-296.082377,-76915.987999
10376.128328,-6957.935855,-14804.118840,-74311.263306
10376.130895,8290.306550,-6809.894666,-75230.577904
10376.133461,1332.370696,16580.613101,-76149.892501
10376.136028,-17320.819043,-8142.265362,-76609.549800
10376.138594,2220.617826,3997.112087,-76609.549800
10376.141161,-444.123565,18505.148550,-75843.454302
10376.143727,-11843.295072,-2220.617826,-74311.263306
10376.146294,-18949.272115,-9622.677246,-74311.263306
10376.148861,4145.153275,-1332.370696,-75996.673402
10376.151427,15692.365970,11399.171507,-77988.521696
10376.153994,-8438.347739,10066.800811,-77222.426198
10376.156560,-17468.860231,-1924.535449,-75537.016103
10376.159127,-2960.823768,9326.594869,-76915.987999
10376.161693,-6513.812290,7994.224174,-76149.892501
10376.164260,-10510.924376,3108.864956,-77375.645298
10376.166827,-14211.954086,-3849.070898,-73545.167808
10376.169393,10658.965565,-10807.006753,-75690.235202
10376.171960,17912.983796,7846.182985,-75383.797003
10376.174526,-5921.647536,8882.471304,-74617.701505
10376.177093,-6069.688724,-13175.665768,-73851.606007
10376.179659,-148.041188,-2072.576638,-75383.797003
10376.182226,9770.718434,14508.036463,-76456.330700
10376.184793,1036.288319,11991.336260,-76762.768900
10376.187359,-9178.553681,-3108.864956,-75843.454302
10376.189926,4441.235652,-148.041188,-76149.892501
10376.192492,8882.471304,5181.441594,-76915.987999
10376.195059,-3552.988522,10807.006753,-77528.864398
10376.197625,-22798.343014,3404.947333,-76609.549800
10376.200192,-14211.954086,4589.276840,-74617.701505
10376.202759,6513.812290,4737.318029,-76149.892501
10376.205325,14656.077652,6661.853478,-77069.207099
10376.207892,-7254.018232,-2812.782580,-75537.016103
10376.210458,-12731.542202,-10510.924376,-74770.920605
10376.213025,-592.164754,-8290.306550,-75537.016103
10376.215591,-7402.059420,9770.718434,-77528.864398
10376.218158,-32124.937883,-1332.370696,-75996.673402
10376.220725,-21614.013506,-8882.471304,-74924.139704
10376.223237,5625.565159,19393.395680,-76303.111601
10376.225750,-6661.853478,1628.453072,-77222.426198
10376.228262,-18949.272115,-11547.212695,-74158.044206
10376.230775,-5181.441594,-5477.523971,-74770.920605
10376.233288,-3552.988522,3108.864956,-76303.111601
10376.235800,-13027.624579,-2220.617826,-76915.987999
10376.238313,-5773.606348,3404.947333,-75996.673402
10376.240825,-6069.688724,19393.395680,-78294.959896
10376.243338,5033.400406,8142.265362,-76609.549800
10376.245850,-2664.741391,-4441.235652,-76762.768900
10376.248363,-12139.377449,-21614.013506,-73085.510509
10376.250876,1036.288319,-4737.318029,-74004.825107
10376.253388,-2220.617826,9030.512492,-74004.825107
10376.255901,-18653.189738,-7105.977043,-74311.263306
10376.258413,-10955.047942,-12139.377449,-75077.358804
10376.260926,-4589.276840,2516.700203,-76303.111601
10376.263438,-15544.324782,5625.565159,-76762.768900
10376.265951,-22798.343014,-15248.242405,-74004.825107
10376.268464,4293.194464,148.041188,-75383.797003
10376.270976,5773.606348,11399.171507,-77222.426198
10376.273489,-18209.066173,-6365.771101,-76609.549800
10376.276001,-25907.207970,-14211.954086,-74158.044206
10376.278514,-6957.935855,-5921.647536,-74464.482406
10376.281027,12287.418637,13323.706956,-77528.864398
10376.283539,-740.205942,-1184.329507,-76915.987999
10376.286052,-888.247130,5181.441594,-76456.330700
10376.288564,-1628.453072,18061.024985,-76456.330700
10376.291077,-17764.942608,9326.594869,-74770.920605
10376.293589,-8438.347739,-17320.819043,-74004.825107
10376.296102,19393.395680,-3552.988522,-76303.111601
10376.298615,20577.725188,14359.995275,-77528.864398
10376.301127,-11399.171507,-592.164754,-76303.111601
10376.303640,-13619.789333,888.247130,-76149.892501
10376.306152,-5625.565159,888.247130,-74924.139704
10376.308665,1184.329507,6069.688724,-74311.263306
10376.311177,-2516.700203,-592.164754,-78294.959896
10376.313690,-6365.771101,16876.695478,-77682.083497
10376.316203,-16876.695478,12879.583391,-76456.330700
10376.318715,-15248.242405,4145.153275,-77222.426198
10376.321228,-15544.324782,6661.853478,-77528.864398
10376.323752,-15396.283594,5625.565159,-77988.521696
10376.326275,-2220.617826,4441.235652,-76609.549800
10376.328799,7105.977043,5921.647536,-76456.330700
10376.331323,14211.954086,8438.347739,-76456.330700
10376.333847,2812.782580,296.082377,-74464.482406
10376.336370,-9030.512492,-148.041188,-74924.139704
10376.338894,-11103.089130,9326.594869,-77375.645298
10376.341418,-14063.912898,6809.894666,-77528.864398
10376.343942,-7105.977043,1332.370696,-77069.207099
10376.346466,3997.112087,11399.171507,-76915.987999
10376.348989,-1480.411884,19541.436869,-76915.987999
10376.351513,-20429.683999,-2812.782580,-75230.577904
10376.354037,-17912.983796,-10214.842000,-74158.044206
10376.356561,-7254.018232,3552.988522,-75996.673402
10376.359084,-14656.077652,-9030.512492,-76149.892501
10376.361608,-6365.771101,-5625.565159,-76303.111601
10376.364132,6957.935855,8734.430116,-77222.426198
10376.366656,-11695.253884,8438.347739,-74617.701505
10376.369180,-15248.242405,-3849.070898,-74924.139704
10376.371703,-15840.407159,-14063.912898,-75383.797003
10376.374227,-1332.370696,4293.194464,-76762.768900
10376.376751,-7105.977043,-3404.947333,-76915.987999
10376.379275,-14063.912898,-5773.606348,-75230.577904
10376.381798,-7994.224174,-6809.894666,-76915.987999
10376.384322,1776.494261,-3108.864956,-75077.358804
10376.386846,2664.741391,-2812.782580,-75690.235202
10376.389370,3701.029710,-1184.329507,-76303.111601
10376.391894,-10807.006753,19689.478057,-77682.083497
10376.394417,-11399.171507,3108.864956,-73085.510509
10376.396941,-9622.677246,-12287.418637,-74158.044206
10376.399465,-1924.535449,12731.542202,-76915.987999
10376.401989,-25907.207970,1628.453072,-75843.454302
10376.404513,-22058.137072,888.247130,-74617.701505
10376.407036,-14359.995275,2664.741391,-76149.892501
10376.409560,-24426.796086,6957.935855,-76762.768900
10376.412084,-23094.425390,-148.041188,-75230.577904
10376.414608,1184.329507,-3256.906145,-76456.330700
10376.417131,10955.047942,15840.407159,-75537.016103
10376.419655,-22798.343014,-5329.482782,-75383.797003
10376.422179,-21169.889941,-15100.201217,-74770.920605
10376.424713,12287.418637,9178.553681,-77222.426198
10376.427246,2072.576638,7254.018232,-76762.768900
10376.429780,-888.247130,1776.494261,-75537.016103
10376.432313,5329.482782,9918.759623,-75843.454302
10376.434847,11547.212695,21021.848753,-76149.892501
10376.437380,-19689.478057,5033.400406,-76609.549800
10376.439914,-27683.702231,-5773.606348,-76149.892501
10376.442447,3997.112087,444.123565,-77069.207099
10376.444981,12879.583391,16284.530724,-77528.864398
10376.447514,-9326.594869,5625.565159,-76149.892501
10376.450048,-6957.935855,-2516.700203,-74924.139704
10376.452581,5773.606348,16284.530724,-74924.139704
10376.455115,-8142.265362,13619.789333,-78754.617194
10376.457649,-39675.038491,16876.695478,-76149.892501
10376.460182,-26055.249158,-9770.718434,-76762.768900
10376.462716,3552.988522,2072.576638,-78294.959896
10376.465249,4441.235652,13471.748144,-78294.959896
10376.467783,-8734.430116,22502.260637,-78754.617194
10376.470316,-19097.313304,-13027.624579,-75230.577904
10376.472850,13175.665768,-3256.906145,-76303.111601
10376.475383,19393.395680,18801.230927,-78141.740796
10376.477917,-13619.789333,0.000000,-76609.549800
10376.480450,-20429.683999,-296.082377,-73238.729609
10376.482984,6957.935855,-2516.700203,-76303.111601
10376.485517,18505.148550,10214.842000,-79367.493593
10376.488051,-6365.771101,14211.954086,-76762.768900
10376.490585,-23094.425390,4145.153275,-74924.139704
10376.493118,-11399.171507,3552.988522,-75383.797003
10376.495652,2960.823768,-5329.482782,-75537.016103
10376.498185,-6069.688724,-296.082377,-76915.987999
10376.500719,-16728.654289,-9030.512492,-76609.549800
10376.503252,-8290.306550,-6513.812290,-75843.454302
10376.505786,4145.153275,11547.212695,-77222.426198
10376.508319,-14952.160028,444.123565,-74924.139704
10376.510853,-16432.571912,-9326.594869,-74004.825107
10376.513386,592.164754,2516.700203,-76303.111601
10376.515920,-5625.565159,4885.359217,-77069.207099
10376.518453,-13767.830521,-15396.283594,-75537.016103
10376.520987,-4589.276840,-2516.700203,-75383.797003
10376.523521,-3701.029710,14063.912898,-75843.454302
10376.526061,-20725.766376,17468.860231,-77222.426198
10376.528601,-31532.773129,14359.995275,-78141.740796
10376.531141,-22206.178260,6365.771101,-75690.235202
10376.533681,-26203.290347,-14656.077652,-76303.111601
10376.536222,-5625.565159,-3849.070898,-76609.549800
10376.538762,-1480.411884,14211.954086,-77835.302597
10376.541302,-25167.002028,-1332.370696,-76303.111601
10376.543842,-23538.548956,-12879.583391,-75843.454302
10376.546383,740.205942,1776.494261,-76456.330700
10376.548923,592.164754,-6217.729913,-77528.864398
10376.551463,-16580.613101,6365.771101,-74924.139704
10376.554003,-25759.166782,2664.741391,-74158.044206
10376.556544,-16136.489536,-11695.253884,-75383.797003
10376.559084,6365.771101,-296.082377,-77222.426198
10376.561624,-740.205942,7105.977043,-76456.330700
10376.564164,-11547.212695,13767.830521,-75843.454302
10376.566705,-15396.283594,-8142.265362,-76915.987999
10376.569245,5181.441594,17616.901420,-77835.302597
10376.571785,-9178.553681,14063.912898,-76303.111601
10376.574325,-13323.706956,-8734.430116,-74004.825107
10376.576866,15100.201217,5033.400406,-76149.892501
10376.579406,16136.489536,12731.542202,-77835.302597
10376.581946,-18357.107362,-592.164754,-75843.454302
10376.584486,-21614.013506,-11695.253884,-75077.358804
10376.587027,3997.112087,17616.901420,-75996.673402
10376.589567,-5921.647536,15840.407159,-77375.645298
10376.592107,-12139.377449,-7254.018232,-74464.482406
10376.594647,-2072.576638,-11695.253884,-74158.044206
10376.597188,19837.519246,-8142.265362,-77528.864398
10376.599728,8882.471304,12731.542202,-77835.302597
10376.602268,-1628.453072,-6661.853478,-73238.729609
10376.604808,-3404.947333,-10955.047942,-74158.044206
10376.607349,9622.677246,18949.272115,-75077.358804
10376.609889,-6513.812290,3404.947333,-77835.302597
10376.612429,-3256.906145,-3701.029710,-76762.768900
10376.614969,7402.059420,6069.688724,-77528.864398
10376.617510,6513.812290,8734.430116,-77069.207099
10376.620050,-13175.665768,1332.370696,-74311.263306
10376.622590,-7402.059420,-8438.347739,-75383.797003
10376.625130,14211.954086,12287.418637,-77069.207099
10376.627676,5773.606348,15100.201217,-78448.178995
10376.630222,-9622.677246,20577.725188,-77528.864398
10376.632768,-29016.072926,-2960.823768,-74770.920605
10376.635314,-12583.501014,-7402.059420,-73851.606007
10376.637860,444.123565,7550.100608,-74924.139704
10376.640406,-11103.089130,-16876.695478,-77069.207099
10376.642952,-4293.194464,-5477.523971,-76915.987999
10376.645498,1480.411884,12139.377449,-77682.083497
10376.648044,-17172.777854,-1628.453072,-75690.235202
10376.650590,-13767.830521,-3701.029710,-73698.386908
10376.653137,-4145.153275,296.082377,-75843.454302
10376.655683,-12583.501014,6069.688724,-76303.111601
10376.658229,-14656.077652,-8586.388927,-76149.892501
10376.660775,-16284.530724,-8882.471304,-76149.892501
10376.663321,-8438.347739,11547.212695,-76609.549800
10376.665867,-18653.189738,12879.583391,-74464.482406
10376.668413,-10362.883188,-7994.224174,-75230.577904
10376.670959,-2516.700203,-13027.624579,-76762.768900
10376.673505,-3404.947333,5477.523971,-75690.235202
10376.676051,-2664.741391,3108.864956,-75077.358804
10376.678597,-14804.118840,-11843.295072,-74464.482406
10376.681143,-10955.047942,-2664.741391,-75230.577904
10376.683689,-11991.336260,2220.617826,-76609.549800
10376.686235,-23242.466579,6217.729913,-75230.577904
10376.688781,-31976.896694,2664.741391,-75537.016103
10376.691327,-33605.349767,-4737.318029,-74158.044206
10376.693873,4737.318029,-3997.112087,-76303.111601
10376.696419,9622.677246,17024.736666,-76915.987999
10376.698965,-27239.578666,-4293.194464,-74617.701505
10376.701511,-18949.272115,-13027.624579,-74464.482406
10376.704057,11843.295072,18357.107362,-77528.864398
10376.706603,-3108.864956,2220.617826,-77528.864398
10376.709107,-3108.864956,-2220.617826,-75690.235202
10376.711611,8142.265362,19097.313304,-76609.549800
10376.714115,-10214.842000,17320.819043,-75996.673402
10376.716618,-22058.137072,-20429.683999,-73545.167808
10376.719122,11843.295072,-11547.212695,-76456.330700
10376.721626,25167.002028,5625.565159,-77375.645298
10376.724130,8882.471304,16728.654289,-77528.864398
10376.726634,-6069.688724,740.205942,-75537.016103
10376.729138,2368.659014,5033.400406,-75537.016103
10376.731642,-2368.659014,12583.501014,-73698.386908
10376.734145,-14804.118840,-18949.272115,-72779.072310
10376.736649,12435.459826,-12583.501014,-75996.673402
10376.739153,9030.512492,6809.894666,-73545.167808
10376.741657,888.247130,-3552.988522,-72779.072310
10376.744161,8290.306550,-3701.029710,-74004.825107
10376.746665,1480.411884,10510.924376,-76609.549800
10376.749169,-4737.318029,5921.647536,-77222.426198
10376.751672,-5181.441594,2664.741391,-77222.426198
10376.754176,2220.617826,1036.288319,-74924.139704
10376.756680,888.247130,9326.594869,-74924.139704
10376.759184,-4293.194464,444.123565,-74311.263306
10376.761688,-740.205942,-1924.535449,-77069.207099
10376.764192,8734.430116,17320.819043,-78448.178995
10376.766696,-11251.130318,20725.766376,-77835.302597
10376.769199,-31976.896694,-8586.388927,-74311.263306
10376.771703,-4885.359217,-8882.471304,-74004.825107
10376.774207,3997.112087,10807.006753,-75077.358804
10376.776711,-19541.436869,-15988.448347,-74464.482406
10376.779215,-6217.729913,-11695.253884,-76149.892501
10376.781719,8438.347739,17912.983796,-78294.959896
10376.784223,-19837.519246,-2220.617826,-76762.768900
10376.786727,-11399.171507,-8882.471304,-74311.263306
10376.789230,-8586.388927,-2812.782580,-75230.577904
10376.791734,-11991.336260,9474.636058,-76149.892501
10376.794238,-18209.066173,-8882.471304,-75996.673402
10376.796742,-12731.542202,-10362.883188,-76915.987999
10376.799246,-4589.276840,3701.029710,-75383.797003
10376.801750,-7994.224174,-2368.659014,-74158.044206
10376.804254,3849.070898,-9326.594869,-74464.482406
10376.806757,7846.182985,15840.407159,-77988.521696
10376.809275,-10955.047942,14656.077652,-74004.825107
10376.811793,-17172.777854,-22354.219448,-74311.263306
10376.814311,296.082377,-1480.411884,-75843.454302
10376.816829,-1184.329507,-2368.659014,-75077.358804
10376.819347,-14508.036463,6217.729913,-76609.549800
10376.821865,-20133.601622,-13767.830521,-73698.386908
10376.824383,-740.205942,-2960.823768,-75690.235202
10376.826901,2664.741391,10807.006753,-77069.207099
10376.829419,-19837.519246,-4885.359217,-76303.111601
10376.831937,-8142.265362,-15544.324782,-74158.044206
10376.834455,9030.512492,3552.988522,-75690.235202
10376.836973,-14211.954086,6661.853478,-75383.797003
10376.839490,-13471.748144,-8142.265362,-77069.207099
10376.842008,2368.659014,22354.219448,-77988.521696
10376.844526,-10214.842000,14952.160028,-76915.987999
10376.847044,-5773.606348,-10214.842000,-74770.920605
10376.849562,1628.453072,-12879.583391,-74770.920605
10376.852080,24426.796086,7550.100608,-76915.987999
10376.854598,-3701.029710,10214.842000,-76762.768900
10376.857116,-21169.889941,-10807.006753,-75537.016103
10376.859634,-4293.194464,11399.171507,-75996.673402
10376.862152,-7105.977043,13471.748144,-76915.987999
10376.864670,-7994.224174,4293.194464,-74617.701505
10376.867188,-888.247130,10955.047942,-75843.454302
10376.869706,-9030.512492,12731.542202,-77528.864398
10376.872224,-10362.883188,6365.771101,-75843.454302
10376.874741,-16580.613101,-4589.276840,-75690.235202
10376.877259,-3404.947333,13323.706956,-75690.235202
10376.879777,-1924.535449,17468.860231,-77835.302597
10376.882295,-3849.070898,9622.677246,-75996.673402
10376.884813,-3552.988522,444.123565,-75996.673402
10376.887331,11251.130318,-1776.494261,-75996.673402
10376.889849,3108.864956,13767.830521,-76456.330700
10376.892367,-11695.253884,-3552.988522,-75077.358804
10376.894885,-1036.288319,-2220.617826,-75996.673402
10376.897403,13619.789333,19837.519246,-78141.740796
10376.899921,-11399.171507,18653.189738,-78141.740796
10376.902439,-31828.855506,-5921.647536,-74617.701505
10376.904957,-6957.935855,-7550.100608,-74617.701505
10376.907475,-592.164754,9326.594869,-74158.044206
10376.910004,-16876.695478,-3404.947333,-76762.768900
10376.912533,-20725.766376,-12287.418637,-75996.673402
10376.915063,7994.224174,4589.276840,-76915.987999
10376.917593,3849.070898,4737.318029,-75690.235202
10376.920123,-5477.523971,-5329.482782,-74770.920605
10376.922652,-7402.059420,-4737.318029,-75383.797003
10376.925182,-14211.954086,8290.306550,-74924.139704
10376.927712,-20873.807564,-9178.553681,-75996.673402
10376.930241,-14508.036463,-9770.718434,-76609.549800
10376.932771,-6809.894666,-4293.194464,-75843.454302
10376.935301,4145.153275,-15100.201217,-74770.920605
10376.937831,4737.318029,-10066.800811,-72166.195912
10376.940360,5477.523971,-11695.253884,-72625.853210
10376.942890,4589.276840,-4145.153275,-74311.263306
10376.945420,-2960.823768,-3849.070898,-76303.111601
10376.947950,-12139.377449,2664.741391,-77988.521696
10376.950479,-25759.166782,-4737.318029,-76303.111601
10376.953009,-12287.418637,2220.617826,-76915.987999
10376.955539,-18505.148550,12435.459826,-74770.920605
10376.958069,-28423.908173,-3256.906145,-74311.263306
10376.960598,-5921.647536,-7254.018232,-75690.235202
10376.963128,4441.235652,11843.295072,-76456.330700
10376.965658,-16728.654289,-5477.523971,-75690.235202
10376.968188,-9474.636058,-10807.006753,-74311.263306
10376.970717,11399.171507,12731.542202,-77069.207099
10376.973247,-6513.812290,3997.112087,-76762.768900
10376.975777,-6217.729913,2368.659014,-75843.454302
10376.978306,5625.565159,888.247130,-75843.454302
10376.980836,3997.112087,21317.931130,-74924.139704
10376.983366,-23094.425390,-3849.070898,-74924.139704
10376.985896,-13323.706956,-13323.706956,-75077.358804
10376.988425,17320.819043,7402.059420,-77682.083497
10376.990955,5181.441594,13619.789333,-78294.959896
10376.993485,-10510.924376,3404.947333,-76149.892501
10376.996015,-4737.318029,888.247130,-77375.645298
10376.998544,1628.453072,3552.988522,-73238.729609
10377.001074,4293.194464,-17616.901420,-75843.454302
10377.003604,2960.823768,2516.700203,-76149.892501
10377.006134,-13175.665768,9770.718434,-74617.701505
10377.008663,-11991.336260,2664.741391,-75077.358804
10377.011159,1184.329507,1628.453072,-77375.645298
10377.013654,5181.441594,14952.160028,-77069.207099
10377.016150,-11251.130318,9178.553681,-77682.083497
10377.018645,-2072.576638,-4293.194464,-75383.797003
10377.021140,5181.441594,9178.553681,-75230.577904
10377.023636,1776.494261,296.082377,-75383.797003
10377.026131,1332.370696,148.041188,-76149.892501
10377.028627,4145.153275,17320.819043,-77988.521696
10377.031122,-11399.171507,19245.354492,-77069.207099
10377.033618,-26943.496289,-3849.070898,-75996.673402
10377.036113,-9326.594869,-9770.718434,-74617.701505
10377.038608,-9918.759623,1628.453072,-74158.044206
10377.041104,-13175.665768,-3404.947333,-76303.111601
10377.043599,-14656.077652,-10362.883188,-76303.111601
10377.046095,5033.400406,4885.359217,-76915.987999
10377.048590,-2072.576638,-592.164754,-75996.673402
10377.051086,-1924.535449,-2368.659014,-74158.044206
10377.053581,-6365.771101,-2220.617826,-75230.577904
10377.056076,-18505.148550,2516.700203,-75230.577904
10377.058572,-16728.654289,-13915.871710,-75383.797003
10377.061067,-5181.441594,-8142.265362,-76762.768900
10377.063563,-1480.411884,-6365.771101,-75996.673402
10377.066058,1776.494261,0.000000,-75996.673402
10377.068554,6957.935855,4293.194464,-76149.892501
10377.071049,-1036.288319,4737.318029,-73698.386908
10377.073545,-9918.759623,-2664.741391,-74770.920605
10377.076040,-12139.377449,-6513.812290,-75383.797003
10377.078535,-14952.160028,-5033.400406,-76456.330700
10377.081031,-13619.789333,3256.906145,-75843.454302
10377.083526,-17468.860231,-14508.036463,-74311.263306
10377.086022,3997.112087,148.041188,-74311.263306
10377.088517,888.247130,7846.182985,-77528.864398
10377.091013,-19689.478057,-2516.700203,-76609.549800
10377.093508,-14359.995275,-10214.842000,-76149.892501
10377.096003,-1776.494261,5773.606348,-75537.016103
10377.098499,-14804.118840,4737.318029,-74617.701505
10377.100994,-11103.089130,-1776.494261,-77222.426198
10377.103490,-7105.977043,15396.283594,-77528.864398
10377.105985,-6365.771101,13323.706956,-76762.768900
10377.108481,-5033.400406,-148.041188,-74924.139704
10377.110993,8586.388927,5329.482782,-76915.987999
10377.113505,-740.205942,13175.665768,-77069.207099
10377.116018,-22502.260637,2072.576638,-75843.454302
10377.118530,-12139.377449,-6809.894666,-76762.768900
10377.121043,4885.359217,15248.242405,-77069.207099
10377.123555,-1924.535449,7254.018232,-76762.768900
10377.126067,-7994.224174,6513.812290,-75230.577904
10377.128580,-14211.954086,11843.295072,-75537.016103
10377.131092,-14063.912898,-4293.194464,-76149.892501
10377.133605,-26351.331535,-3849.070898,-76303.111601
10377.136117,-13767.830521,-3552.988522,-75537.016103
10377.138629,-3404.947333,22502.260637,-78907.836294
10377.141142,-8290.306550,21317.931130,-77222.426198
10377.143654,-11991.336260,-1480.411884,-76762.768900
10377.146167,5921.647536,-1776.494261,-77375.645298
10377.148679,9474.636058,10955.047942,-75996.673402
10377.151191,-4885.359217,-3108.864956,-75537.016103
10377.153704,3997.112087,740.205942,-75690.235202
10377.156216,7105.977043,22058.137072,-77528.864398
10377.158729,-18505.148550,8142.265362,-76762.768900
10377.161241,-20873.807564,-9178.553681,-75690.235202
10377.163753,6809.894666,4441.235652,-76303.111601
10377.166266,148.041188,6661.853478,-74617.701505
10377.168778,-6365.771101,-15840.407159,-75077.358804
10377.171291,-3256.906145,-10066.800811,-76609.549800
10377.173803,888.247130,12287.418637,-77375.645298
10377.176315,-17172.777854,-1332.370696,-76456.330700
10377.178828,-12287.418637,7254.018232,-74464.482406
10377.181340,-13767.830521,-2516.700203,-75537.016103
10377.183853,-11695.253884,-5033.400406,-74004.825107
10377.186365,1036.288319,-11991.336260,-74924.139704
10377.188877,1332.370696,-8438.347739,-77375.645298
10377.191390,-5625.565159,-4441.235652,-75537.016103
10377.193902,-3849.070898,-1332.370696,-76609.549800
10377.196415,3108.864956,-2516.700203,-75383.797003
10377.198927,-2812.782580,-8734.430116,-74158.044206
10377.201439,-3108.864956,-1924.535449,-72166.195912
10377.203952,-7550.100608,-14508.036463,-74004.825107
10377.206464,-592.164754,-9030.512492,-75996.673402
10377.208977,-8142.265362,14508.036463,-76915.987999
10377.211502,-40267.203245,1628.453072,-76149.892501
10377.214028,-29164.114115,-5181.441594,-74004.825107
10377.216554,3701.029710,1332.370696,-75996.673402
10377.219079,6957.935855,3552.988522,-76609.549800
10377.221605,-6809.894666,-17616.901420,-73698.386908
10377.224131,6217.729913,-6513.812290,-74924.139704
10377.226656,-592.164754,13323.706956,-76762.768900
10377.229182,-15692.365970,3997.112087,-77222.426198
10377.231707,-592.164754,2516.700203,-75996.673402
10377.234233,5329.482782,15544.324782,-76149.892501
10377.236759,-11547.212695,11547.212695,-75996.673402
10377.239284,-2812.782580,-18061.024985,-74770.920605
10377.241810,19985.560434,-7105.977043,-77069.207099
10377.244336,11695.253884,12731.542202,-77222.426198
10377.246861,-15396.283594,-2960.823768,-75996.673402
10377.249387,-15692.365970,5625.565159,-76456.330700
10377.251913,-6513.812290,14063.912898,-77682.083497
10377.254438,1332.370696,-444.123565,-75537.016103
10377.256964,7846.182985,1184.329507,-76456.330700
10377.259490,-148.041188,9474.636058,-74617.701505
10377.262015,3997.112087,10362.883188,-74311.263306
10377.264541,7105.977043,-888.247130,-74770.920605
10377.267067,-5329.482782,1332.370696,-75230.577904
10377.269592,3997.112087,6809.894666,-75537.016103
10377.272118,9030.512492,3256.906145,-76915.987999
10377.274644,-1036.288319,-444.123565,-75996.673402
10377.277169,5773.606348,-7254.018232,-76303.111601
10377.279695,12583.501014,12583.501014,-76762.768900
10377.282220,-10214.842000,12287.418637,-75690.235202
10377.284746,-18505.148550,-7254.018232,-75230.577904
10377.287272,10362.883188,5921.647536,-76915.987999
10377.289797,6957.935855,11103.089130,-77375.645298
10377.292323,-6069.688724,-2072.576638,-75383.797003
10377.294849,-14063.912898,-20873.807564,-75383.797003
10377.297374,-5625.565159,888.247130,-76149.892501
10377.299900,-17616.901420,10362.883188,-77222.426198
10377.302426,-25611.125593,-6809.894666,-76456.330700
10377.304951,-15396.283594,15100.201217,-75537.016103
10377.307477,-11399.171507,0.000000,-75537.016103
10377.310003,-2072.576638,-7105.977043,-75843.454302
10377.312539,3997.112087,-1480.411884,-76303.111601
10377.315076,-12287.418637,-6069.688724,-77988.521696
10377.317613,-8882.471304,-2960.823768,-74311.263306
10377.320149,-5033.400406,1480.411884,-78294.959896
10377.322686,-6365.771101,9178.553681,-78294.959896
10377.325223,-7402.059420,-13323.706956,-74617.701505
10377.327760,-3849.070898,-4737.318029,-71706.538613
10377.330296,-5773.606348,-5921.647536,-74617.701505
10377.332833,-6069.688724,-12287.418637,-74924.139704
10377.335370,-9622.677246,6365.771101,-77222.426198
10377.337907,-25018.960840,11103.089130,-77835.302597
10377.340443,-32717.102636,0.000000,-75690.235202
10377.342980,-11843.295072,-6661.853478,-74464.482406
10377.345517,2812.782580,2664.741391,-75383.797003
10377.348053,-8734.430116,-5921.647536,-74770.920605
10377.350590,148.041188,-11251.130318,-75230.577904
10377.353127,5921.647536,10510.924376,-77375.645298
10377.355664,1480.411884,10510.924376,-77069.207099
10377.358200,-5477.523971,3701.029710,-76303.111601
10377.360737,6957.935855,10362.883188,-76609.549800
10377.363274,-4293.194464,16432.571912,-75843.454302
10377.365810,-7550.100608,-16876.695478,-73391.948708
10377.368347,14063.912898,-10362.883188,-76915.987999
10377.370884,16432.571912,12583.501014,-77375.645298
10377.373421,-11251.130318,5625.565159,-78141.740796
10377.375957,-19985.560434,7105.977043,-74924.139704
10377.378494,-3404.947333,3108.864956,-74004.825107
10377.381031,3701.029710,-8882.471304,-73851.606007
10377.383568,18949.272115,-3108.864956,-74158.044206
10377.386104,-888.247130,1036.288319,-73851.606007
10377.388641,-5921.647536,-3701.029710,-75843.454302
10377.391178,-9918.759623,-7402.059420,-77375.645298
10377.393714,5773.606348,21762.054695,-78294.959896
10377.396251,-4589.276840,16432.571912,-77682.083497
10377.398788,-12287.418637,-5033.400406,-76609.549800
10377.401325,1036.288319,13619.789333,-75996.673402
10377.403861,-3997.112087,2072.576638,-76149.892501
10377.406398,-2664.741391,-1480.411884,-75230.577904
10377.408935,8438.347739,3552.988522,-77528.864398
10377.411472,4293.194464,23686.590144,-78141.740796
10377.414018,-26055.249158,7402.059420,-76762.768900
10377.416564,-28127.825796,-15248.242405,-73085.510509
10377.419110,-9770.718434,2960.823768,-73698.386908
10377.421656,-20725.766376,-2960.823768,-76149.892501
10377.424202,-21021.848753,-6513.812290,-75996.673402
10377.426748,4293.194464,-740.205942,-77069.207099
10377.429294,5477.523971,3701.029710,-75537.016103
10377.431840,6661.853478,-4293.194464,-74464.482406
10377.434386,-2960.823768,-3997.112087,-75690.235202
10377.436933,-21614.013506,740.205942,-74311.263306
10377.439479,-15248.242405,-11843.295072,-74464.482406
10377.442025,-12879.583391,7254.018232,-79061.055394
10377.444571,-22058.137072,17912.983796,-76762.768900
10377.447117,-14804.118840,-3849.070898,-76456.330700
10377.449663,-444.123565,-592.164754,-77528.864398
10377.452209,-13175.665768,8586.388927,-77528.864398
10377.454755,-12139.377449,296.082377,-73391.948708
10377.457301,-19985.560434,-11991.336260,-74770.920605
10377.459848,-296.082377,-148.041188,-76762.768900
10377.462394,-13027.624579,13619.789333,-77835.302597
10377.464940,-33013.185013,-148.041188,-76303.111601
10377.467486,-17172.777854,-8586.388927,-74924.139704
10377.470032,3701.029710,5921.647536,-74924.139704
10377.472578,-13471.748144,-5625.565159,-74311.263306
10377.475124,-7105.977043,-13619.789333,-74770.920605
10377.477670,9030.512492,11695.253884,-77835.302597
10377.480216,-1332.370696,2516.700203,-77375.645298
10377.482763,3404.947333,888.247130,-76609.549800
10377.485309,5033.400406,8290.306550,-76609.549800
10377.487855,-3997.112087,13767.830521,-75537.016103
10377.490401,-4885.359217,-15544.324782,-74158.044206
10377.492947,14211.954086,-7550.100608,-75843.454302
10377.495493,8882.471304,13027.624579,-78141.740796
10377.498039,-17616.901420,3701.029710,-75996.673402
10377.500585,-16876.695478,2072.576638,-75996.673402
10377.503131,2368.659014,12583.501014,-73851.606007
10377.505678,-1332.370696,-5329.482782,-73085.510509
10377.508224,12435.459826,-3256.906145,-75690.235202
10377.510770,592.164754,34345.555709,-75843.454302
10377.513316,-14359.995275,10214.842000,-75537.016103
10377.515829,-6365.771101,-17468.860231,-75537.016103
10377.518342,5773.606348,-1628.453072,-75996.673402
10377.520855,19245.354492,23094.425390,-77835.302597
10377.523368,-888.247130,-4441.235652,-74617.701505
10377.525882,-740.205942,-8734.430116,-74464.482406
10377.528395,12583.501014,3997.112087,-76149.892501
10377.530908,-1036.288319,11843.295072,-76762.768900
10377.533421,-15248.242405,-5329.482782,-76915.987999
10377.535934,8734.430116,5329.482782,-76609.549800
10377.538447,7402.059420,16432.571912,-76915.987999
10377.540960,-26499.372724,-10362.883188,-74617.701505
10377.543474,-21910.095883,-9178.553681,-73851.606007
10377.545987,-17912.983796,-888.247130,-76609.549800
10377.548500,-20133.601622,-1924.535449,-76149.892501
10377.551013,-17912.983796,-5181.441594,-76762.768900
10377.553526,-13619.789333,12731.542202,-74617.701505
10377.556039,-7402.059420,-3701.029710,-75077.358804
10377.558552,4589.276840,-2812.782580,-76609.549800
10377.561066,-3849.070898,6217.729913,-76303.111601
10377.563579,-11991.336260,-20281.642811,-74924.139704
10377.566092,-6365.771101,-12139.377449,-75843.454302
10377.568605,4737.318029,5773.606348,-77528.864398
10377.571118,-592.164754,11695.253884,-75996.673402
10377.573631,-8438.347739,-12139.377449,-74004.825107
10377.576144,-3701.029710,-11695.253884,-72779.072310
10377.578657,-2072.576638,8290.306550,-75690.235202
10377.581171,-7105.977043,10807.006753,-77222.426198
10377.583684,-37158.338288,3701.029710,-76762.768900
10377.586197,-30200.402434,-5181.441594,-75230.577904
10377.588710,1628.453072,6957.935855,-77375.645298
10377.591223,444.123565,10362.883188,-76609.549800
10377.593736,-10214.842000,-24722.878463,-73085.510509
10377.596249,8882.471304,-1924.535449,-74464.482406
10377.598763,-3849.070898,12139.377449,-76762.768900
10377.601276,-17172.777854,-8142.265362,-77682.083497
10377.603789,-4293.194464,19837.519246,-77375.645298
10377.606302,-6661.853478,19097.313304,-76149.892501
10377.608815,-740.205942,-1036.288319,-74464.482406
10377.611328,11399.171507,10510.924376,-75690.235202
10377.613841,3849.070898,8586.388927,-77528.864398
10377.616369,-14063.912898,5921.647536,-76303.111601
10377.618896,-14952.160028,-9622.677246,-75996.673402
10377.621424,6069.688724,12583.501014,-76762.768900
10377.623951,4589.276840,10658.965565,-74617.701505
10377.626479,-6661.853478,-17024.736666,-71859.757712
10377.629006,20133.601622,1628.453072,-74004.825107
10377.631534,2516.700203,25463.084405,-74770.920605
10377.634061,-12583.501014,-6217.729913,-74004.825107
10377.636589,444.123565,-7994.224174,-76609.549800
10377.639116,9622.677246,30496.484810,-78601.398095
10377.641644,-12287.418637,8586.388927,-78294.959896
10377.644171,-16432.571912,-5181.441594,-74311.263306
10377.646699,-4145.153275,-10658.965565,-74158.044206
10377.649226,17764.942608,3108.864956,-77222.426198
10377.651754,5921.647536,19245.354492,-78141.740796
10377.654281,-17616.901420,-4589.276840,-75996.673402
10377.656809,148.041188,888.247130,-76303.111601
10377.659336,6513.812290,16728.654289,-76762.768900
10377.661864,-26351.331535,-8142.265362,-74617.701505
10377.664391,-23834.631332,-12583.501014,-74617.701505
10377.666919,-9918.759623,3701.029710,-77375.645298
10377.669446,-18505.148550,1628.453072,-76915.987999
10377.671974,-15840.407159,-11843.295072,-76303.111601
10377.674501,-444.123565,888.247130,-73238.729609
10377.677029,-10362.883188,-2220.617826,-75077.358804
10377.679556,3849.070898,-4293.194464,-77069.207099
10377.682084,3256.906145,-592.164754,-77069.207099
10377.684611,-11991.336260,-1628.453072,-76303.111601
10377.687139,-25907.207970,10510.924376,-74004.825107
10377.689666,-18653.189738,-8142.265362,-76456.330700
10377.692194,-2368.659014,19393.395680,-80899.684589
10377.694721,-15544.324782,13323.706956,-76149.892501
10377.697249,-22058.137072,-15100.201217,-74004.825107
10377.699776,-12435.459826,1036.288319,-75077.358804
10377.702304,-11991.336260,2516.700203,-78448.178995
10377.704831,-22354.219448,10658.965565,-77375.645298
10377.707359,-30644.525999,-296.082377,-75996.673402
10377.709886,-33457.308578,-4885.359217,-75690.235202
10377.712414,-13915.871710,7550.100608,-74924.139704
10377.714941,-21317.931130,740.205942,-76303.111601
10377.717481,-11547.212695,-7698.141797,-74770.920605
10377.720020,11843.295072,7105.977043,-76762.768900
10377.722560,2072.576638,8586.388927,-77069.207099
10377.725100,5033.400406,3256.906145,-77069.207099
10377.727640,5181.441594,18061.024985,-77222.426198
10377.730179,-12287.418637,14952.160028,-74464.482406
10377.732719,-5477.523971,-16580.613101,-74158.044206
10377.735259,14359.995275,888.247130,-77069.207099
10377.737798,2812.782580,13915.871710,-77222.426198
10377.740338,-6513.812290,14656.077652,-77988.521696
10377.742878,-21762.054695,5329.482782,-76915.987999
10377.745417,1184.329507,-3552.988522,-75843.454302
10377.747957,6217.729913,12583.501014,-77682.083497
10377.750497,-5625.565159,-7105.977043,-74924.139704
10377.753037,-11991.336260,-13175.665768,-73851.606007
10377.755576,6661.853478,20429.683999,-76762.768900
10377.758116,-2368.659014,10362.883188,-76609.549800
10377.760656,-3108.864956,-1628.453072,-75077.358804
10377.763195,9178.553681,-444.123565,-76915.987999
10377.765735,19393.395680,15396.283594,-77222.426198
10377.768275,-9918.759623,3256.906145,-76456.330700
10377.770814,-21169.889941,-9178.553681,-73698.386908
10377.773354,5477.523971,-6957.935855,-75996.673402
10377.775894,14508.036463,13767.830521,-77375.645298
10377.778433,-1776.494261,9770.718434,-77835.302597
10377.780973,-28868.031738,-12139.377449,-73391.948708
10377.783513,-17024.736666,-740.205942,-74617.701505
10377.786053,-16432.571912,-2368.659014,-76915.987999
10377.788592,-21317.931130,-12139.377449,-75996.673402
10377.791132,-1184.329507,-5033.400406,-76456.330700
10377.793672,1480.411884,7846.182985,-76149.892501
10377.796211,3108.864956,2812.782580,-75383.797003
10377.798751,-6513.812290,-5181.441594,-75843.454302
10377.801291,-17616.901420,592.164754,-74924.139704
10377.803830,-15248.242405,-7698.141797,-73545.167808
10377.806370,-30792.567187,16432.571912,-74311.263306
10377.808910,-21169.889941,-9770.718434,-75996.673402
10377.811450,-7105.977043,13915.871710,-79827.150892
10377.813989,-14211.954086,13323.706956,-76609.549800
10377.816529,-18505.148550,-19837.519246,-74311.263306
10377.819078,-6365.771101,0.000000,-75383.797003
10377.821627,-5477.523971,-8586.388927,-75690.235202
10377.824176,-6661.853478,-1776.494261,-76149.892501
10377.826725,-14063.912898,5181.441594,-75843.454302
10377.829274,-24870.919651,-4885.359217,-75690.235202
10377.831823,-12583.501014,8438.347739,-74770.920605
10377.834372,-21614.013506,-6365.771101,-74770.920605
10377.836921,-7846.182985,-8734.430116,-74004.825107
10377.839470,6957.935855,-3849.070898,-76303.111601
10377.842019,9030.512492,17764.942608,-78907.836294
10377.844568,5033.400406,7698.141797,-77069.207099
10377.847117,8734.430116,7105.977043,-75843.454302
10377.849666,-2812.782580,17616.901420,-74311.263306
10377.852215,-8734.430116,-15988.448347,-74311.263306
10377.854764,8882.471304,-9326.594869,-76303.111601
10377.857313,10362.883188,9326.594869,-77528.864398
10377.859862,-12435.459826,6069.688724,-77069.207099
10377.862411,-17024.736666,-2516.700203,-76303.111601
10377.864960,7254.018232,-8438.347739,-74617.701505
10377.867509,21910.095883,-7105.977043,-75690.235202
10377.870058,4589.276840,-13471.748144,-72932.291410
10377.872607,4293.194464,-3108.864956,-74311.263306
10377.875156,5181.441594,9326.594869,-76915.987999
10377.877705,2368.659014,11399.171507,-77835.302597
10377.880254,-8586.388927,8142.265362,-77988.521696
10377.882803,-21614.013506,10362.883188,-77069.207099
10377.885352,-8142.265362,-740.205942,-74924.139704
10377.887901,15100.201217,-3404.947333,-75690.235202
10377.890450,20873.807564,14508.036463,-76149.892501
10377.892999,-7254.018232,5033.400406,-76609.549800
10377.895548,-7846.182985,-6809.894666,-76609.549800
10377.898098,3404.947333,8882.471304,-76915.987999
10377.900647,-2368.659014,3404.947333,-73851.606007
10377.903196,-12287.418637,-19541.436869,-75383.797003
10377.905745,-10658.965565,-4737.318029,-76303.111601
10377.908294,-13471.748144,6661.853478,-77375.645298
10377.910843,-16432.571912,-1924.535449,-76609.549800
10377.913392,-16580.613101,10658.965565,-74464.482406
10377.915941,-12583.501014,-3256.906145,-74464.482406
10377.918490,1332.370696,-3849.070898,-76456.330700
10377.921046,2960.823768,-3404.947333,-78448.178995
10377.923603,-3108.864956,-13175.665768,-74770.920605
10377.926159,-8290.306550,-1036.288319,-75690.235202
10377.928716,-8290.306550,1628.453072,-78754.617194
10377.931272,-1628.453072,12287.418637,-77069.207099
10377.933828,-10807.006753,-6809.894666,-73698.386908
10377.936385,-14952.160028,-3701.029710,-73238.729609
10377.938941,-6661.853478,-18505.148550,-74158.044206
10377.941497,-6365.771101,6069.688724,-76149.892501
10377.944054,-24870.919651,10658.965565,-77528.864398
10377.946610,-29312.155303,-13175.665768,-76303.111601
10377.949167,-7846.182985,7550.100608,-74464.482406
10377.951723,-1332.370696,-13767.830521,-74004.825107
10377.954279,11843.295072,-9030.512492,-73851.606007
10377.956836,9474.636058,10955.047942,-76915.987999
10377.959392,-11103.089130,-5033.400406,-77835.302597
10377.961948,-3701.029710,10066.800811,-77375.645298
10377.964505,-444.123565,16876.695478,-77835.302597
10377.967061,-16284.530724,18801.230927,-74924.139704
10377.969617,-7550.100608,-13175.665768,-75537.016103
10377.972174,11103.089130,2664.741391,-77069.207099
10377.974730,444.123565,13175.665768,-77835.302597
10377.977287,-16728.654289,-11399.171507,-76303.111601
10377.979843,-6661.853478,3701.029710,-75383.797003
10377.982399,-1776.494261,5477.523971,-75230.577904
10377.984956,6809.894666,-3256.906145,-74311.263306
10377.987512,15988.448347,-9326.594869,-75537.016103
10377.990068,8734.430116,21910.095883,-75230.577904
10377.992625,-5625.565159,6661.853478,-75690.235202
10377.995181,-2072.576638,-11991.336260,-76303.111601
10377.997738,12435.459826,17468.860231,-76762.768900
10378.000294,-3849.070898,20133.601622,-79214.274493
10378.002856,-18357.107362,6069.688724,-76149.892501
10378.005417,-8586.388927,-9030.512492,-74311.263306
10378.007979,24130.713709,3552.988522,-75996.673402
10378.010540,5921.647536,25611.125593,-77069.207099
10378.013102,-25463.084405,-11103.089130,-76149.892501
10378.015664,-5477.523971,-3997.112087,-75383.797003
10378.018225,1184.329507,8290.306550,-74311.263306
10378.020787,-14211.954086,-22650.301825,-75690.235202
10378.023349,-11695.253884,-7994.224174,-76149.892501
10378.025910,-12435.459826,8586.388927,-77835.302597
10378.028472,-21021.848753,-4293.194464,-76303.111601
10378.031034,-25463.084405,12435.459826,-74924.139704
10378.033595,-26351.331535,-3701.029710,-74617.701505
10378.036157,-6809.894666,-3701.029710,-76149.892501
10378.038719,7994.224174,7402.059420,-77222.426198
10378.041280,-14656.077652,9918.759623,-74617.701505
10378.043842,-32124.937883,-10362.883188,-72166.195912
10378.046403,3552.988522,-32124.937883,-73238.729609
10378.048965,20725.766376,8438.347739,-77988.521696
10378.051527,-5477.523971,15396.283594,-75537.016103
10378.054088,-33309.267390,-26795.455100,-70327.566716
10378.056650,-17616.901420,-23982.672521,-73391.948708
10378.059212,11547.212695,888.247130,-77988.521696
10378.061773,-4737.318029,11399.171507,-79214.274493
10378.064335,-8734.430116,6809.894666,-76915.987999
10378.066897,-17764.942608,-11399.171507,-74770.920605
10378.069458,-4589.276840,11251.130318,-75383.797003
10378.072020,-22058.137072,-5773.606348,-75077.358804
10378.074582,-10807.006753,-6957.935855,-76456.330700
10378.077143,-4885.359217,22946.384202,-77835.302597
10378.079705,2516.700203,9770.718434,-77375.645298
10378.082266,16580.613101,5477.523971,-76456.330700
10378.084828,6069.688724,13767.830521,-74924.139704
10378.087390,-1628.453072,-14359.995275,-72625.853210
10378.089951,12879.583391,-6661.853478,-75537.016103
10378.092513,5921.647536,6957.935855,-78754.617194
10378.095075,-17616.901420,19393.395680,-79061.055394
10378.097636,-17616.901420,-592.164754,-73545.167808
10378.100198,5181.441594,-11547.212695,-75996.673402
10378.102760,6957.935855,19837.519246,-76149.892501
10378.105326,-12435.459826,-444.123565,-75843.454302
10378.107892,-10658.965565,-10658.965565,-73238.729609
10378.110459,8290.306550,14656.077652,-77528.864398
10378.113025,3552.988522,18949.272115,-80133.589091
10378.115591,-17912.983796,3997.112087,-76149.892501
10378.118158,2368.659014,-12435.459826,-75690.235202
10378.120724,28719.990550,11547.212695,-75077.358804
10378.123290,2072.576638,8586.388927,-75537.016103
10378.125857,-15544.324782,-16580.613101,-76149.892501
10378.128423,-1480.411884,-11251.130318,-75843.454302
10378.130989,19245.354492,16728.654289,-77375.645298
10378.133556,-19985.560434,888.247130,-75383.797003
10378.136122,-29608.237680,-21614.013506,-73698.386908
10378.138688,-18505.148550,2960.823768,-76303.111601
10378.141254,-21910.095883,888.247130,-76762.768900
10378.143821,-13915.871710,-12879.583391,-77375.645298
10378.146387,4441.235652,-296.082377,-74311.263306
10378.148953,15544.324782,592.164754,-75077.358804
10378.151520,3701.029710,2664.741391,-75843.454302
10378.154086,-18801.230927,-4885.359217,-72779.072310
10378.156652,-30496.484810,-148.041188,-76303.111601
10378.159219,-30348.443622,7846.182985,-74924.139704
10378.161785,-26055.249158,-3701.029710,-78754.617194
10378.164351,-11843.295072,5181.441594,-80899.684589
10378.166918,-21762.054695,5773.606348,-75996.673402
10378.169484,-22206.178260,-10066.800811,-71859.757712
10378.172050,-17024.736666,-6957.935855,-71859.757712
10378.174617,-1628.453072,-5181.441594,-75383.797003
10378.177183,2368.659014,3108.864956,-79980.369991
10378.179749,-17912.983796,9918.759623,-78754.617194
10378.182316,-18061.024985,2220.617826,-76609.549800
10378.184882,-25759.166782,8586.388927,-74311.263306
10378.187448,-29016.072926,-10807.006753,-72319.415011
10378.190015,4145.153275,1924.535449,-75843.454302
10378.192581,-5773.606348,25018.960840,-79214.274493
10378.195147,-6957.935855,10510.924376,-78141.740796
10378.197714,10510.924376,2664.741391,-75077.358804
10378.200280,15100.201217,12435.459826,-74617.701505
10378.202846,2812.782580,-12287.418637,-73545.167808
10378.205413,7698.141797,-8290.306550,-75230.577904
10378.207982,5033.400406,6809.894666,-79061.055394
10378.210551,-16136.489536,8882.471304,-78141.740796
10378.213120,-19393.395680,3552.988522,-73698.386908
10378.215690,4885.359217,-6365.771101,-75077.358804
10378.218259,13767.830521,8586.388927,-75383.797003
10378.220828,-2220.617826,3997.112087,-73698.386908
10378.223397,-2664.741391,-5625.565159,-72932.291410
10378.225967,2960.823768,3701.029710,-77835.302597
10378.228536,14063.912898,12879.583391,-78141.740796
10378.231105,-1036.288319,26203.290347,-78754.617194
10378.233674,-26203.290347,-1184.329507,-75383.797003
10378.236244,-11991.336260,-5181.441594,-72625.853210
10378.238813,23242.466579,7402.059420,-75537.016103
10378.241382,2516.700203,16136.489536,-77835.302597
10378.243951,-13471.748144,-6661.853478,-76303.111601
10378.246520,3997.112087,-740.205942,-76609.549800
10378.249090,-5329.482782,7846.182985,-74311.263306
10378.251659,-19985.560434,-24870.919651,-73851.606007
10378.254228,-19245.354492,1036.288319,-76303.111601
10378.256797,-20725.766376,5773.606348,-77528.864398
10378.259367,-15988.448347,148.041188,-75996.673402
10378.261936,-17764.942608,5921.647536,-74770.920605
10378.264505,-8882.471304,-8290.306550,-74464.482406
10378.267074,4885.359217,3256.906145,-76303.111601
10378.269644,6957.935855,-1036.288319,-74158.044206
10378.272213,-6365.771101,-25463.084405,-74924.139704
10378.274782,444.123565,-13915.871710,-77528.864398
10378.277351,8882.471304,6661.853478,-76915.987999
10378.279921,2812.782580,2664.741391,-78294.959896
10378.282490,-15396.283594,-10214.842000,-72932.291410
10378.285059,-5773.606348,-17764.942608,-71859.757712
10378.287628,8142.265362,1628.453072,-72779.072310
10378.290198,-2516.700203,2072.576638,-78294.959896
10378.292767,-29608.237680,1924.535449,-79214.274493
10378.295336,-23390.507767,1628.453072,-76915.987999
10378.297905,-14656.077652,-7698.141797,-74617.701505
10378.300474,4589.276840,-4293.194464,-73238.729609
10378.303044,9474.636058,3552.988522,-76303.111601
10378.305613,-2516.700203,3404.947333,-77069.207099
10378.308182,7698.141797,4589.276840,-78448.178995
10378.310754,6513.812290,16284.530724,-77528.864398
10378.313325,-15396.283594,7402.059420,-73851.606007
10378.315897,-6513.812290,10658.965565,-74770.920605
10378.318469,-11991.336260,16284.530724,-76762.768900
10378.321040,-14656.077652,-4441.235652,-76762.768900
10378.323612,-14359.995275,-11547.212695,-77375.645298
10378.326184,4145.153275,12139.377449,-74924.139704
10378.328755,-296.082377,-7402.059420,-72625.853210
10378.331327,23538.548956,-25759.166782,-73391.948708
10378.333898,28571.949361,13323.706956,-78141.740796
10378.336470,5181.441594,23834.631332,-76303.111601
10378.339042,-11991.336260,-15988.448347,-72625.853210
10378.341613,21762.054695,-10807.006753,-73085.510509
10378.344185,29164.114115,27979.784608,-77835.302597
10378.346756,-8438.347739,0.000000,-77988.521696
10378.349328,-13767.830521,-444.123565,-75843.454302
10378.351900,6513.812290,15396.283594,-75383.797003
10378.354471,9622.677246,14211.954086,-75843.454302
10378.357043,-13027.624579,-8142.265362,-77069.207099
10378.359615,-3108.864956,-9178.553681,-77069.207099
10378.362186,-2220.617826,10214.842000,-73545.167808
10378.364758,-12435.459826,-14656.077652,-74770.920605
10378.367329,-15988.448347,-7994.224174,-74924.139704
10378.369901,-23538.548956,4441.235652,-77069.207099
10378.372473,-20873.807564,-6809.894666,-76303.111601
10378.375044,-6217.729913,-5181.441594,-74770.920605
10378.377616,12583.501014,-4441.235652,-75230.577904
10378.380187,8586.388927,6809.894666,-76149.892501
10378.382759,-17616.901420,3108.864956,-73238.729609
10378.385331,-28127.825796,-15840.407159,-74924.139704
10378.387902,-26647.413912,-9474.636058,-75843.454302
10378.390474,-1776.494261,-1924.535449,-77222.426198
10378.393046,-6661.853478,11991.336260,-79673.931792
10378.395617,-25018.960840,-3404.947333,-73698.386908
10378.398189,-19097.313304,-30052.361245,-69867.909418
10378.400760,17468.860231,-6661.853478,-72472.634111
10378.403332,3849.070898,5181.441594,-77988.521696
10378.405904,-30644.525999,1776.494261,-78294.959896
10378.408475,-25315.043216,296.082377,-76456.330700
10378.411047,-16284.530724,-444.123565,-75996.673402
10378.413620,-7402.059420,-5625.565159,-73238.729609
10378.416194,4293.194464,2072.576638,-74617.701505
10378.418768,4441.235652,8290.306550,-77988.521696
10378.421341,11251.130318,8586.388927,-77375.645298
10378.423915,18061.024985,12139.377449,-77682.083497
10378.426488,-5477.523971,12879.583391,-74617.701505
10378.429062,-7550.100608,-7846.182985,-75230.577904
10378.431635,-148.041188,14063.912898,-76915.987999
10378.434209,-13175.665768,7698.141797,-76303.111601
10378.436783,-17320.819043,-10955.047942,-76456.330700
10378.439356,1184.329507,16432.571912,-78448.178995
10378.441930,-3849.070898,30940.608376,-78448.178995
10378.444503,-21614.013506,15692.365970,-76456.330700
10378.447077,-19245.354492,-888.247130,-75996.673402
10378.449650,-24574.837274,3404.947333,-78141.740796
10378.452224,-8290.306550,16728.654289,-77222.426198
10378.454797,10658.965565,2960.823768,-77528.864398
10378.457371,14508.036463,-2516.700203,-77222.426198
10378.459945,11251.130318,10214.842000,-76609.549800
10378.462518,-9326.594869,3997.112087,-74004.825107
10378.465092,-5181.441594,-8290.306550,-74464.482406
10378.467665,7105.977043,25611.125593,-78907.836294
10378.470239,-19837.519246,6809.894666,-77528.864398
10378.472812,-21465.972318,-13175.665768,-74311.263306
10378.475386,-3404.947333,2812.782580,-73698.386908
10378.477960,-9178.553681,-10362.883188,-74617.701505
10378.480533,-12879.583391,-9770.718434,-76303.111601
10378.483107,-5477.523971,6365.771101,-77528.864398
10378.485680,2072.576638,9622.677246,-77069.207099
10378.488254,-18061.024985,11843.295072,-75383.797003
10378.490827,-27091.537477,-10066.800811,-73851.606007
10378.493401,-3256.906145,-11695.253884,-72932.291410
10378.495974,6513.812290,-6661.853478,-75537.016103
10378.498548,2812.782580,3108.864956,-76609.549800
10378.501122,-5477.523971,-16728.654289,-75996.673402
10378.503695,1036.288319,-6661.853478,-77222.426198
10378.506269,4145.153275,3108.864956,-75537.016103
10378.508842,-12879.583391,-15100.201217,-74464.482406
10378.511416,-15692.365970,444.123565,-72319.415011
10378.513989,-19837.519246,3997.112087,-73085.510509
10378.516564,-27831.743419,3256.906145,-78141.740796
10378.519138,-25611.125593,-4145.153275,-78141.740796
10378.521712,-10066.800811,-12879.583391,-75383.797003
10378.524287,15100.201217,-1480.411884,-73085.510509
10378.526861,6661.853478,5921.647536,-74311.263306
10378.529436,-8882.471304,-7698.141797,-77375.645298
10378.532010,7105.977043,12139.377449,-79061.055394
10378.534584,-1184.329507,22058.137072,-78294.959896
10378.537159,-16580.613101,-592.164754,-74770.920605
10378.539733,740.205942,11695.253884,-73698.386908
10378.542307,-6217.729913,1776.494261,-75690.235202
10378.544882,296.082377,-7550.100608,-75690.235202
10378.547456,10955.047942,-2812.782580,-79061.055394
10378.550030,11695.253884,2516.700203,-77069.207099
10378.552605,11991.336260,-2368.659014,-76762.768900
10378.555179,-2368.659014,15396.283594,-74158.044206
10378.557753,-18801.230927,0.000000,-74158.044206
10378.560328,-15100.201217,-8734.430116,-73698.386908
10378.562902,3997.112087,13027.624579,-78141.740796
10378.565476,4885.359217,5181.441594,-80899.684589
10378.568051,8882.471304,14359.995275,-78601.398095
10378.570625,-1184.329507,7698.141797,-76149.892501
10378.573199,-11399.171507,-4589.276840,-72319.415011
10378.575774,0.000000,-1184.329507,-74464.482406
10378.578348,3108.864956,20873.807564,-77375.645298
10378.580923,-12435.459826,6069.688724,-78448.178995
10378.583497,-21465.972318,-5477.523971,-75230.577904
10378.586071,-11251.130318,6661.853478,-73851.606007
10378.588646,-25315.043216,-13027.624579,-74464.482406
10378.591220,-17764.942608,-11843.295072,-74770.920605
10378.593794,3997.112087,1480.411884,-78448.178995
10378.596369,-4293.194464,7254.018232,-76762.768900
10378.598943,-21317.931130,148.041188,-74311.263306
10378.601517,-11547.212695,-14804.118840,-74464.482406
10378.604092,6661.853478,11399.171507,-75537.016103
10378.606666,-7254.018232,25611.125593,-77528.864398
10378.609240,-45744.727216,6957.935855,-75843.454302
10378.611815,-25167.002028,2072.576638,-76915.987999
10378.614389,-12287.418637,11399.171507,-79980.369991
10378.616963,-3552.988522,10955.047942,-76609.549800
10378.619539,-32717.102636,-17764.942608,-71553.319513
10378.622114,-17320.819043,-12435.459826,-69714.690318
10378.624689,11991.336260,6069.688724,-76303.111601
10378.627264,-9770.718434,5181.441594,-79827.150892
10378.629839,-26943.496289,-1776.494261,-77682.083497
10378.632414,-24870.919651,-10510.924376,-75690.235202
10378.634990,1480.411884,4441.235652,-73085.510509
10378.637565,3552.988522,2516.700203,-74924.139704
10378.640140,-5329.482782,-8438.347739,-76915.987999
10378.642715,19541.436869,10658.965565,-78141.740796
10378.645290,14211.954086,21317.931130,-79061.055394
10378.647866,-3552.988522,16728.654289,-76303.111601
10378.650441,-17468.860231,-2812.782580,-75843.454302
10378.653016,-16728.654289,15248.242405,-74924.139704
10378.655591,-15100.201217,5033.400406,-75690.235202
10378.658166,-3404.947333,-7254.018232,-76915.987999
10378.660741,-296.082377,16284.530724,-79061.055394
10378.663317,-5329.482782,9770.718434,-75843.454302
10378.665892,-11843.295072,4293.194464,-72166.195912
10378.668467,-3552.988522,-8438.347739,-74924.139704
10378.671042,-6365.771101,6365.771101,-76303.111601
10378.673617,-740.205942,15988.448347,-79520.712692
10378.676192,-7105.977043,10362.883188,-78601.398095
10378.678768,-10362.883188,-2220.617826,-78294.959896
10378.681343,-3552.988522,-6513.812290,-74464.482406
10378.683918,18357.107362,14952.160028,-74158.044206
10378.686493,3404.947333,-3256.906145,-74158.044206
10378.689068,3997.112087,-6957.935855,-76456.330700
10378.691643,10066.800811,11103.089130,-78754.617194
10378.694219,-21465.972318,1332.370696,-76915.987999
10378.696794,-31680.814318,-8142.265362,-73238.729609
10378.699369,-27387.619854,-2664.741391,-74004.825107
10378.701944,-21910.095883,-2072.576638,-75537.016103
10378.704519,-2960.823768,-4885.359217,-77835.302597
10378.707094,1184.329507,4737.318029,-77375.645298
10378.709670,-10955.047942,14952.160028,-76609.549800
10378.712245,-9326.594869,6957.935855,-74004.825107
10378.714820,-23982.672521,-1776.494261,-76149.892501
10378.717395,-21169.889941,8438.347739,-76456.330700
10378.719970,-23982.672521,-7402.059420,-75383.797003
10378.722545,-5773.606348,-24722.878463,-76456.330700
10378.725120,12435.459826,9030.512492,-76149.892501
10378.727695,-1036.288319,-17764.942608,-73391.948708
10378.730269,-2368.659014,-13915.871710,-71706.538613
10378.732844,-14063.912898,10066.800811,-72319.415011
10378.735419,-28127.825796,-12139.377449,-75690.235202
10378.737994,-11399.171507,-1776.494261,-79367.493593
10378.740569,444.123565,-5477.523971,-78294.959896
10378.743143,11991.336260,-3108.864956,-73085.510509
10378.745718,6365.771101,11103.089130,-74311.263306
10378.748293,-11991.336260,-6217.729913,-77069.207099
10378.750868,3108.864956,13323.706956,-78294.959896
10378.753443,740.205942,16728.654289,-78754.617194
10378.756017,-6365.771101,-888.247130,-75230.577904
10378.758592,5477.523971,9326.594869,-73698.386908
10378.761167,-3849.070898,-2664.741391,-74617.701505
10378.763742,1924.535449,-7254.018232,-75537.016103
10378.766316,7846.182985,-2664.741391,-78141.740796
10378.768891,-8586.388927,25907.207970,-80899.684589
10378.771466,-24426.796086,24426.796086,-76456.330700
10378.774041,-21317.931130,-2072.576638,-75537.016103
10378.776616,-15248.242405,-13619.789333,-74464.482406
10378.779190,-2368.659014,10214.842000,-74770.920605
10378.781765,-3552.988522,19393.395680,-78294.959896
10378.784340,-11399.171507,19689.478057,-79367.493593
10378.786915,-14359.995275,-888.247130,-78601.398095
10378.789490,10362.883188,-296.082377,-76762.768900
10378.792064,21317.931130,13175.665768,-74158.044206
10378.794639,148.041188,-4145.153275,-73085.510509
10378.797214,10658.965565,-1776.494261,-76609.549800
10378.799789,2812.782580,12731.542202,-79367.493593
10378.802363,-37602.461854,-3256.906145,-76762.768900
10378.804938,-31976.896694,-6513.812290,-73391.948708
10378.807513,-20429.683999,1776.494261,-74158.044206
10378.810088,-29312.155303,4293.194464,-75383.797003
10378.812663,-13767.830521,-11103.089130,-77222.426198
10378.815237,3552.988522,888.247130,-77682.083497
10378.817812,-1776.494261,17024.736666,-76149.892501
10378.820387,-22650.301825,3404.947333,-75230.577904
10378.822962,-2960.823768,-21021.848753,-71246.881314
10378.825536,10066.800811,-6957.935855,-77988.521696
10378.828111,-1628.453072,17320.819043,-79367.493593
10378.830686,-23094.425390,10955.047942,-76762.768900
10378.833260,-10510.924376,-5033.400406,-78601.398095
10378.835835,-14952.160028,-17320.819043,-73238.729609
10378.838409,2220.617826,-13027.624579,-69867.909418
10378.840984,6957.935855,444.123565,-74924.139704
10378.843558,-15100.201217,9326.594869,-78601.398095
10378.846133,-14508.036463,2368.659014,-77835.302597
10378.848708,-20873.807564,-6661.853478,-76915.987999
10378.851282,-5329.482782,-3256.906145,-73545.167808
10378.853857,-888.247130,4441.235652,-75230.577904
10378.856431,-4737.318029,-4441.235652,-75230.577904
10378.859006,16876.695478,7402.059420,-77988.521696
10378.861581,16136.489536,22502.260637,-79061.055394
10378.864155,-10510.924376,1776.494261,-75537.016103
10378.866730,-9030.512492,4737.318029,-73698.386908
10378.869304,-12583.501014,2516.700203,-75383.797003
10378.871879,-5181.441594,-9474.636058,-76609.549800
10378.874454,-1036.288319,-3404.947333,-77069.207099
10378.877028,-5477.523971,21169.889941,-79827.150892
10378.879603,-11399.171507,10510.924376,-74004.825107
10378.882177,1332.370696,-13175.665768,-74158.044206
10378.884752,6217.729913,3108.864956,-74770.920605
10378.887327,-1480.411884,14656.077652,-75077.358804
10378.889901,-7254.018232,-9770.718434,-76456.330700
10378.892476,29164.114115,3849.070898,-77988.521696
10378.895050,22798.343014,13027.624579,-80286.808190
10378.897625,-14952.160028,-1480.411884,-74617.701505
10378.900199,-16284.530724,-888.247130,-72472.634111
10378.902774,2072.576638,15396.283594,-74924.139704
10378.905349,-1628.453072,-3404.947333,-76762.768900
10378.907923,-18801.230927,-9326.594869,-77375.645298
10378.910498,-10362.883188,-1036.288319,-74924.139704
10378.913072,-6957.935855,-10807.006753,-73698.386908
10378.915647,-3701.029710,-740.205942,-74311.263306
10378.918222,-15988.448347,3108.864956,-77375.645298
10378.920796,-19245.354492,-4737.318029,-76915.987999
10378.923371,-5921.647536,-5773.606348,-75690.235202
10378.925945,6069.688724,-1036.288319,-76149.892501
10378.928519,-4885.359217,1480.411884,-76762.768900
10378.931094,-8142.265362,-5773.606348,-74464.482406
10378.933668,-10066.800811,-9030.512492,-77375.645298
10378.936243,-7550.100608,7254.018232,-78141.740796
10378.938817,16876.695478,6365.771101,-77375.645298
10378.941391,-1776.494261,-16432.571912,-73391.948708
10378.943966,-2220.617826,-12731.542202,-70021.128517
10378.946540,-4441.235652,4441.235652,-70327.566716
10378.949115,-30496.484810,-6809.894666,-75077.358804
10378.951689,-18357.107362,-4737.318029,-77988.521696
10378.954264,4293.194464,-7105.977043,-79673.931792
10378.956838,7846.182985,3256.906145,-76303.111601
10378.959412,-11251.130318,-2664.741391,-72319.415011
10378.961987,-11251.130318,-4589.276840,-74770.920605
10378.964561,-7105.977043,23686.590144,-77375.645298
10378.967136,-12583.501014,6365.771101,-78754.617194
10378.969710,10807.006753,-2812.782580,-75996.673402
10378.972285,5477.523971,9622.677246,-74924.139704
10378.974859,3552.988522,-10658.965565,-73851.606007
10378.977433,13027.624579,-6217.729913,-73391.948708
10378.980008,8586.388927,9030.512492,-76915.987999
10378.982582,-18061.024985,17172.777854,-80133.589091
10378.985157,-24426.796086,2368.659014,-75843.454302
10378.987731,-5033.400406,-888.247130,-73851.606007
10378.990306,8142.265362,-4737.318029,-73391.948708
10378.992880,-1776.494261,5921.647536,-73085.510509
10378.995454,-1480.411884,3849.070898,-77528.864398
10378.998029,14211.954086,13767.830521,-80593.246390
10379.000603,-3256.906145,15396.283594,-80593.246390
10379.003178,-12731.542202,-2664.741391,-75077.358804
10379.005752,-18061.024985,-2960.823768,-73545.167808
10379.008327,-2812.782580,17024.736666,-74617.701505
10379.010901,-7105.977043,-3552.988522,-77528.864398
10379.013475,296.082377,-1332.370696,-77988.521696
10379.016050,-5921.647536,4293.194464,-76149.892501
10379.018624,-13323.706956,-17764.942608,-74464.482406
10379.021199,-11399.171507,-4589.276840,-74004.825107
10379.023773,-21021.848753,4589.276840,-76149.892501
10379.026348,-21465.972318,-3108.864956,-76456.330700
10379.028922,-4737.318029,740.205942,-76915.987999
10379.031461,-3108.864956,13471.748144,-76303.111601
10379.034000,-16728.654289,-6661.853478,-74004.825107
10379.036539,-30052.361245,-148.041188,-73391.948708
10379.039079,-10510.924376,-13027.624579,-73085.510509
10379.041618,7846.182985,8882.471304,-79061.055394
10379.044157,148.041188,10658.965565,-79980.369991
10379.046696,-16284.530724,-23686.590144,-74617.701505
10379.049235,-2072.576638,-23094.425390,-69714.690318
10379.051774,13619.789333,1036.288319,-72625.853210
10379.054313,-22058.137072,5329.482782,-75537.016103
10379.056852,-35085.761651,-7994.224174,-76609.549800
10379.059391,-1184.329507,-14804.118840,-77988.521696
10379.061931,16728.654289,11991.336260,-77528.864398
10379.064470,-19393.395680,888.247130,-74158.044206
10379.067009,-23242.466579,-13323.706956,-73085.510509
10379.069548,2072.576638,3404.947333,-75996.673402
10379.072087,15692.365970,27831.743419,-79214.274493
10379.074626,-5181.441594,1924.535449,-76915.987999
10379.077165,-5625.565159,296.082377,-74924.139704
10379.079704,-5773.606348,-7698.141797,-74464.482406
10379.082244,6217.729913,-2516.700203,-74464.482406
10379.084783,7402.059420,2664.741391,-78448.178995
10379.087322,-10214.842000,-4589.276840,-75690.235202
10379.089861,740.205942,-15248.242405,-75996.673402
10379.092400,21910.095883,-6809.894666,-75690.235202
10379.094939,10362.883188,13323.706956,-76149.892501
10379.097478,-888.247130,7550.100608,-71553.319513
10379.100017,-12139.377449,25167.002028,-75843.454302
10379.102557,-7846.182985,-9622.677246,-78907.836294
10379.105096,9474.636058,3849.070898,-82278.656485
10379.107635,7994.224174,24870.919651,-78141.740796
10379.110174,-12583.501014,-6069.688724,-72166.195912
10379.112713,5181.441594,12139.377449,-73545.167808
10379.115252,-1776.494261,7105.977043,-77528.864398
10379.117791,-26055.249158,-3849.070898,-77222.426198
10379.120330,-25018.960840,2516.700203,-75537.016103
10379.122869,-23094.425390,-8734.430116,-74464.482406
10379.125409,-7550.100608,-7402.059420,-74464.482406
10379.127948,-444.123565,1184.329507,-77069.207099
10379.130487,-12435.459826,444.123565,-75996.673402
10379.133033,-3997.112087,-14508.036463,-74924.139704
10379.135579,-1628.453072,-15692.365970,-76762.768900
10379.138124,2220.617826,-7698.141797,-74924.139704
10379.140670,3997.112087,-28423.908173,-73391.948708
10379.143216,11991.336260,-2220.617826,-79061.055394
10379.145762,5181.441594,38786.791361,-78601.398095
10379.148308,-14063.912898,-8290.306550,-79673.931792
10379.150854,-14359.995275,-12583.501014,-75383.797003
10379.153400,-13767.830521,1332.370696,-70021.128517
10379.155946,-13175.665768,-10807.006753,-70174.347617
10379.158492,-11103.089130,1332.370696,-74311.263306
10379.161037,-8586.388927,10510.924376,-79520.712692
10379.163583,-7254.018232,11399.171507,-77988.521696
10379.166129,-18653.189738,-4885.359217,-74158.044206
10379.168675,-7698.141797,-2368.659014,-73851.606007
10379.171221,-7698.141797,16876.695478,-75843.454302
10379.173767,-3552.988522,6661.853478,-77069.207099
10379.176313,21465.972318,9178.553681,-78141.740796
10379.178859,15248.242405,13915.871710,-76609.549800
10379.181404,592.164754,8290.306550,-76915.987999
10379.183950,-16284.530724,13175.665768,-74770.920605
10379.186496,-22798.343014,-444.123565,-77069.207099
10379.189042,4293.194464,-888.247130,-75996.673402
10379.191588,2664.741391,2220.617826,-78141.740796
10379.194134,1924.535449,8438.347739,-75383.797003
10379.196680,1628.453072,17764.942608,-73698.386908
10379.199226,-13471.748144,8142.265362,-74464.482406
10379.201771,-7254.018232,-1628.453072,-74464.482406
10379.204317,23094.425390,-11103.089130,-78141.740796
10379.206863,34937.720462,19689.478057,-80133.589091
10379.209409,-6809.894666,6809.894666,-76762.768900
10379.211955,-16728.654289,-9178.553681,-73851.606007
10379.214501,1776.494261,17320.819043,-75077.358804
10379.217047,-11251.130318,888.247130,-76149.892501
10379.219593,-9178.553681,-6809.894666,-75230.577904
10379.222139,-3256.906145,-740.205942,-75690.235202
10379.224684,-2072.576638,-16432.571912,-76303.111601
10379.227230,-7550.100608,-3552.988522,-75383.797003
10379.229776,-1628.453072,1036.288319,-76609.549800
10379.232322,-10807.006753,3256.906145,-75996.673402
10379.234873,-2812.782580,-2220.617826,-75537.016103
10379.237423,2220.617826,3404.947333,-75383.797003
10379.239974,-12287.418637,11547.212695,-75537.016103
10379.242525,-23686.590144,7105.977043,-72472.634111
10379.245076,-9770.718434,-25463.084405,-72166.195912
10379.247626,9622.677246,-11251.130318,-77835.302597
10379.250177,21614.013506,1776.494261,-75996.673402
10379.252728,1628.453072,-5773.606348,-75996.673402
10379.255278,-27239.578666,-7402.059420,-72625.853210
10379.257829,-29460.196492,-13175.665768,-71553.319513
10379.260380,-11399.171507,-2220.617826,-75230.577904
10379.262930,-444.123565,888.247130,-79980.369991
10379.265481,-21021.848753,17024.736666,-77069.207099
10379.268032,-34345.555709,-13619.789333,-73085.510509
10379.270583,6365.771101,-2368.659014,-73698.386908
10379.273133,11399.171507,14656.077652,-77069.207099
10379.275684,1924.535449,5625.565159,-76149.892501
10379.278235,9474.636058,11399.171507,-77528.864398
10379.280785,9178.553681,18949.272115,-77222.426198
10379.283336,-1480.411884,6809.894666,-75537.016103
10379.285887,-17764.942608,4885.359217,-75077.358804
10379.288437,-20133.601622,-3552.988522,-75230.577904
10379.290988,-888.247130,13619.789333,-81052.903688
10379.293539,9178.553681,14508.036463,-78907.836294
10379.296089,-6365.771101,2812.782580,-75996.673402
10379.298640,-11251.130318,-15840.407159,-72779.072310
10379.301191,444.123565,2960.823768,-71400.100414
10379.303742,-444.123565,19097.313304,-76149.892501
10379.306292,-296.082377,1332.370696,-79214.274493
10379.308843,3701.029710,2664.741391,-81512.560987
10379.311394,6513.812290,20577.725188,-78754.617194
10379.313944,-3108.864956,-1332.370696,-74464.482406
10379.316495,-4145.153275,14952.160028,-73698.386908
10379.319046,-16580.613101,2368.659014,-76303.111601
10379.321596,-11547.212695,-8142.265362,-77375.645298
10379.324147,-16580.613101,1776.494261,-76762.768900
10379.326698,-22650.301825,-6809.894666,-75383.797003
10379.329249,-23242.466579,-7105.977043,-74770.920605
10379.331799,-3108.864956,444.123565,-75690.235202
10379.334350,-1628.453072,4589.276840,-76456.330700
10379.336905,2220.617826,-6069.688724,-76149.892501
10379.339460,-148.041188,-1776.494261,-75996.673402
10379.342016,-8586.388927,-3404.947333,-72932.291410
10379.344571,-148.041188,-11991.336260,-73851.606007
10379.347126,9918.759623,-18801.230927,-76149.892501
10379.349682,592.164754,13323.706956,-76456.330700
10379.352237,0.000000,-2812.782580,-75690.235202
10379.354792,-12731.542202,-25463.084405,-72625.853210
10379.357347,-24574.837274,-23242.466579,-72779.072310
10379.359903,-8438.347739,8586.388927,-74617.701505
10379.362458,-16876.695478,8734.430116,-77528.864398
10379.365013,-16284.530724,-19541.436869,-76149.892501
10379.367569,5477.523971,3701.029710,-77222.426198
10379.370124,-1776.494261,8882.471304,-76915.987999
10379.372679,-15692.365970,-6513.812290,-75996.673402
10379.375234,-4737.318029,12583.501014,-75996.673402
10379.377790,-1480.411884,18505.148550,-77528.864398
10379.380345,2664.741391,3552.988522,-76303.111601
10379.382900,8734.430116,5329.482782,-75843.454302
10379.385456,9030.512492,-1776.494261,-76149.892501
10379.388011,-3256.906145,148.041188,-74617.701505
10379.390566,6217.729913,7105.977043,-81052.903688
10379.393121,3108.864956,8142.265362,-77835.302597
10379.395677,-10362.883188,1776.494261,-75383.797003
10379.398232,-10066.800811,-4589.276840,-71093.662214
10379.400787,-148.041188,-1628.453072,-72625.853210
10379.403343,2960.823768,2220.617826,-75996.673402
10379.405898,10214.842000,9770.718434,-79214.274493
10379.408453,12879.583391,9622.677246,-80133.589091
10379.411008,-1776.494261,444.123565,-76303.111601
10379.413564,444.123565,4293.194464,-73391.948708
10379.416119,-5181.441594,8142.265362,-72779.072310
10379.418674,4441.235652,-13471.748144,-74924.139704
10379.421230,-2960.823768,-8882.471304,-75996.673402
10379.423785,1036.288319,-1480.411884,-76456.330700
10379.426340,-2664.741391,-19393.395680,-75537.016103
10379.428895,-7105.977043,296.082377,-75230.577904
10379.431451,-26499.372724,2812.782580,-75690.235202
10379.434006,-27683.702231,-4885.359217,-75843.454302
10379.436561,-11251.130318,3404.947333,-77069.207099
10379.439120,-16284.530724,-8882.471304,-76303.111601
10379.441678,-11991.336260,-9326.594869,-71859.757712
10379.444236,-1036.288319,-5181.441594,-73851.606007
10379.446795,2220.617826,-12583.501014,-74464.482406
10379.449353,5033.400406,-9770.718434,-76456.330700
10379.451911,6513.812290,-7550.100608,-75230.577904
10379.454470,-17616.901420,-5921.647536,-75383.797003
10379.457028,-10362.883188,-12435.459826,-72166.195912
10379.459586,-15692.365970,11991.336260,-73545.167808
10379.462144,-24278.754898,-5329.482782,-75690.235202
10379.464703,-6217.729913,-8586.388927,-77069.207099
10379.467261,-4441.235652,10362.883188,-78141.740796
10379.469819,-22798.343014,-2960.823768,-74004.825107
10379.472378,-9474.636058,-5773.606348,-74158.044206
10379.474936,6217.729913,15840.407159,-76609.549800
10379.477494,4885.359217,15100.201217,-77528.864398
10379.480053,7402.059420,4293.194464,-77222.426198
10379.482611,11695.253884,12287.418637,-76149.892501
10379.485169,6069.688724,-2368.659014,-75996.673402
10379.487728,-4293.194464,15840.407159,-75843.454302
10379.490286,-6957.935855,-7994.224174,-77069.207099
10379.492844,-11547.212695,-26647.413912,-75537.016103
10379.495403,12731.542202,5033.400406,-76915.987999
10379.497961,1036.288319,28275.866984,-77069.207099
10379.500519,-15100.201217,22354.219448,-73391.948708
10379.503078,-18505.148550,-21614.013506,-72625.853210
10379.505636,21021.848753,-1036.288319,-79061.055394
10379.508194,41895.656317,27683.702231,-81206.122788
10379.510752,-5329.482782,-1776.494261,-76609.549800
10379.513311,-15692.365970,-6069.688724,-72166.195912
10379.515869,5921.647536,3552.988522,-73698.386908
10379.518427,3997.112087,6513.812290,-76149.892501
10379.520988,-3701.029710,-6069.688724,-77375.645298
10379.523549,-15988.448347,-2516.700203,-75077.358804
10379.526110,-8142.265362,-15396.283594,-75383.797003
10379.528671,888.247130,2516.700203,-76456.330700
10379.531232,-25315.043216,592.164754,-75843.454302
10379.533793,-30348.443622,-6809.894666,-75077.358804
10379.536354,-13027.624579,10214.842000,-77528.864398
10379.538915,-16136.489536,-4145.153275,-77835.302597
10379.541476,-1776.494261,-15544.324782,-73698.386908
10379.544037,2368.659014,11547.212695,-76915.987999
10379.546598,-19689.478057,17172.777854,-78601.398095
10379.549159,-7402.059420,-10214.842000,-77682.083497
10379.551720,7846.182985,3849.070898,-77069.207099
10379.554280,-16728.654289,-5625.565159,-73545.167808
10379.556841,-25463.084405,-20873.807564,-70327.566716
10379.559402,-7402.059420,6365.771101,-73698.386908
10379.561963,-11103.089130,4145.153275,-76915.987999
10379.564524,-12583.501014,-13323.706956,-75843.454302
10379.567085,-1036.288319,296.082377,-76762.768900
10379.569646,-11251.130318,12287.418637,-75230.577904
10379.572207,-18949.272115,-3701.029710,-76915.987999
10379.574768,-1776.494261,10807.006753,-75383.797003
10379.577329,5921.647536,13915.871710,-76609.549800
10379.579890,11251.130318,4885.359217,-77528.864398
10379.582451,5329.482782,7254.018232,-75996.673402
10379.585012,-2812.782580,-10807.006753,-75077.358804
10379.587573,-5033.400406,12435.459826,-75996.673402
10379.590133,1480.411884,-3256.906145,-79673.931792
10379.592694,1332.370696,-9326.594869,-78448.178995
10379.595255,-2368.659014,9178.553681,-74311.263306
10379.597816,-10066.800811,-1184.329507,-72779.072310
10379.600377,-6217.729913,-296.082377,-71246.881314
10379.602938,-4737.318029,12583.501014,-76149.892501
10379.605499,5477.523971,5773.606348,-78601.398095
10379.608060,6365.771101,8882.471304,-81818.999186
10379.610621,3108.864956,13027.624579,-78294.959896
10379.613182,-740.205942,1184.329507,-73391.948708
10379.615743,17024.736666,7698.141797,-74924.139704
10379.618304,-9622.677246,6661.853478,-77528.864398
10379.620865,-30200.402434,-4441.235652,-75996.673402
10379.623427,-25018.960840,3108.864956,-76149.892501
10379.625989,-27239.578666,-7698.141797,-75230.577904
10379.628552,-13471.748144,-6957.935855,-75077.358804
10379.631114,0.000000,2072.576638,-75843.454302
10379.633677,-2072.576638,1924.535449,-76303.111601
10379.636239,5921.647536,2664.741391,-76762.768900
10379.638801,-6069.688724,-3552.988522,-72779.072310
10379.641364,-1480.411884,-16728.654289,-72779.072310
10379.643926,1480.411884,9178.553681,-79367.493593
10379.646488,18209.066173,15692.365970,-79827.150892
10379.649051,-6661.853478,17320.819043,-78601.398095
10379.651613,-17320.819043,-21910.095883,-73085.510509
10379.654176,7254.018232,-15248.242405,-70787.224015
10379.656738,3552.988522,13471.748144,-71400.100414
10379.659300,-32717.102636,-5773.606348,-73391.948708
10379.661863,-27091.537477,2664.741391,-77682.083497
10379.664425,-15692.365970,12879.583391,-78601.398095
10379.666988,-18209.066173,-8142.265362,-76762.768900
10379.669550,-2368.659014,2072.576638,-74770.920605
10379.672112,4293.194464,1776.494261,-74464.482406
10379.674675,16284.530724,14952.160028,-76303.111601
10379.677237,6217.729913,12879.583391,-78448.178995
10379.679799,6069.688724,7846.182985,-76149.892501
10379.682362,-4885.359217,2960.823768,-74770.920605
10379.684924,-18949.272115,2368.659014,-74617.701505
10379.687487,-9770.718434,-7550.100608,-78601.398095
10379.690049,9326.594869,-15692.365970,-78141.740796
10379.692611,2220.617826,11251.130318,-78754.617194
10379.695174,-11991.336260,27535.661042,-75230.577904
10379.697736,-20133.601622,7994.224174,-72166.195912
10379.700299,-15396.283594,-15100.201217,-71859.757712
10379.702861,16876.695478,0.000000,-77682.083497
10379.705423,32865.143825,25907.207970,-81359.341888
10379.707986,1036.288319,7402.059420,-77988.521696
10379.710548,-14952.160028,1776.494261,-74004.825107
10379.713110,-740.205942,7698.141797,-73391.948708
10379.715673,-1628.453072,6069.688724,-76609.549800
10379.718235,-15988.448347,-2516.700203,-77528.864398
10379.720798,-21317.931130,0.000000,-75537.016103
10379.723360,-14063.912898,-18061.024985,-74617.701505
10379.725924,3404.947333,-3108.864956,-76303.111601
10379.728488,-10807.006753,2368.659014,-76762.768900
10379.731052,-23094.425390,-1184.329507,-75843.454302
10379.733616,-7254.018232,5625.565159,-77528.864398
10379.736180,-10362.883188,-1332.370696,-76609.549800
10379.738744,-9918.759623,-2812.782580,-71246.881314
10379.741308,-3256.906145,-1184.329507,-74158.044206
10379.743872,-1480.411884,5477.523971,-77988.521696
10379.746436,-11843.295072,6069.688724,-78141.740796
10379.749000,-7698.141797,-13175.665768,-77528.864398
10379.751564,-11695.253884,-5625.565159,-73085.510509
10379.754128,-16136.489536,-148.041188,-71400.100414
10379.756692,-20725.766376,-6069.688724,-74464.482406
10379.759256,-9474.636058,10807.006753,-76762.768900
10379.761820,-29608.237680,4885.359217,-77988.521696
10379.764384,-28127.825796,-12731.542202,-74770.920605
10379.766948,11991.336260,1184.329507,-75843.454302
10379.769512,16136.489536,6365.771101,-75383.797003
10379.772076,11547.212695,2664.741391,-76149.892501
10379.774640,8586.388927,11399.171507,-77375.645298
10379.777204,10658.965565,12731.542202,-75996.673402
10379.779768,148.041188,5625.565159,-75383.797003
10379.782332,-19097.313304,-6513.812290,-73085.510509
10379.784896,-3256.906145,-2220.617826,-75077.358804
10379.787461,8438.347739,19985.560434,-80899.684589
10379.790025,-7402.059420,23094.425390,-77682.083497
10379.792589,-10214.842000,-9474.636058,-71400.100414
10379.795153,-4589.276840,-5773.606348,-72012.976812
10379.797717,1036.288319,27831.743419,-73851.606007
10379.800281,-4885.359217,-148.041188,-78141.740796
10379.802845,5033.400406,1924.535449,-81206.122788
10379.805409,15100.201217,16580.613101,-79214.274493
10379.807973,15100.201217,7105.977043,-74617.701505
10379.810537,4885.359217,12583.501014,-75230.577904
10379.813101,-19837.519246,-1480.411884,-76762.768900
10379.815665,-18209.066173,-2072.576638,-75843.454302
10379.818229,-10066.800811,-1776.494261,-75690.235202
10379.820793,-16876.695478,-14211.954086,-75230.577904
10379.823357,-9474.636058,-3552.988522,-75383.797003
10379.825921,-8882.471304,5181.441594,-76149.892501
10379.828486,-14656.077652,1184.329507,-75843.454302
10379.831051,-1036.288319,444.123565,-77528.864398
10379.833616,-10362.883188,888.247130,-74311.263306
10379.836180,-10807.006753,2072.576638,-70940.443115
10379.838745,-3849.070898,-592.164754,-75537.016103
10379.841310,-10066.800811,-3404.947333,-76762.768900
10379.843875,-5773.606348,-3256.906145,-77375.645298
10379.846440,-5921.647536,-5773.606348,-75843.454302
10379.849005,-12879.583391,-740.205942,-71859.757712
10379.851570,-19689.478057,-6661.853478,-71093.662214
10379.854135,-18801.230927,-2368.659014,-75537.016103
10379.856700,-3256.906145,-1628.453072,-77988.521696
10379.859265,-10955.047942,10214.842000,-77682.083497
10379.861830,-31384.731941,-6217.729913,-74617.701505
10379.864395,-7105.977043,-3701.029710,-74004.825107
10379.866959,1628.453072,18209.066173,-76149.892501
10379.869524,0.000000,8290.306550,-76609.549800
10379.872089,1036.288319,740.205942,-76609.549800
10379.874654,14952.160028,9030.512492,-75230.577904
10379.877219,8586.388927,11843.295072,-74464.482406
10379.879784,-11547.212695,9030.512492,-74770.920605
10379.882349,-18357.107362,1776.494261,-78601.398095
10379.884914,-15100.201217,12139.377449,-82278.656485
10379.887479,-12731.542202,8734.430116,-78754.617194
10379.890044,-7254.018232,5773.606348,-73085.510509
10379.892609,-6661.853478,12139.377449,-73851.606007
10379.895173,444.123565,8142.265362,-77222.426198
10379.897738,3552.988522,11399.171507,-81206.122788
10379.900303,-740.205942,-888.247130,-79367.493593
10379.902868,9326.594869,592.164754,-75383.797003
10379.905433,-4885.359217,6069.688724,-73085.510509
10379.907998,10214.842000,-4293.194464,-74924.139704
10379.910563,11695.253884,1628.453072,-77375.645298
10379.913128,-7550.100608,-4589.276840,-74924.139704
10379.915693,-11103.089130,-6661.853478,-77222.426198
10379.918258,-29608.237680,6513.812290,-75537.016103
10379.920823,-42635.862259,-13619.789333,-75077.358804
10379.923388,-11843.295072,-5033.400406,-75383.797003
10379.925952,-296.082377,10066.800811,-77528.864398
10379.928517,-2368.659014,-148.041188,-76303.111601
10379.931083,-17912.983796,-6513.812290,-74924.139704
10379.933648,-6513.812290,4589.276840,-74464.482406
10379.936214,-5181.441594,-13471.748144,-75537.016103
10379.938780,-4441.235652,-7550.100608,-78601.398095
10379.941345,888.247130,-4293.194464,-77375.645298
10379.943911,-13619.789333,-8734.430116,-73545.167808
10379.946477,-18801.230927,-2960.823768,-70021.128517
10379.949042,-18357.107362,-3849.070898,-73085.510509
10379.951608,-12139.377449,7698.141797,-76762.768900
10379.954174,-25463.084405,0.000000,-77222.426198
10379.956739,-16580.613101,-12583.501014,-75537.016103
10379.959305,11843.295072,10362.883188,-76762.768900
10379.961871,2516.700203,1480.411884,-75537.016103
10379.964437,3256.906145,4145.153275,-75537.016103
10379.967002,7698.141797,17172.777854,-77528.864398
10379.969568,-2664.741391,13471.748144,-77069.207099
10379.972134,-2516.700203,2220.617826,-74004.825107
10379.974699,-14656.077652,-13471.748144,-73545.167808
10379.977265,4885.359217,6069.688724,-76762.768900
10379.979831,22946.384202,24574.837274,-79520.712692
10379.982396,-5773.606348,9030.512492,-77528.864398
10379.984962,-9326.594869,-9474.636058,-69408.252119
10379.987528,-6217.729913,-9622.677246,-71553.319513
10379.990094,10362.883188,31976.896694,-77069.207099
10379.992659,-11547.212695,20133.601622,-80593.246390
10379.995225,-18801.230927,-5625.565159,-79520.712692
10379.997791,18209.066173,3404.947333,-77222.426198
10380.000356,15396.283594,10214.842000,-75843.454302
10380.002922,19245.354492,6217.729913,-75690.235202
10380.005488,-3849.070898,-2368.659014,-76149.892501
10380.008053,-16136.489536,-1776.494261,-75383.797003
10380.010619,-12583.501014,1924.535449,-76915.987999
10380.013185,-38490.708984,-6069.688724,-75690.235202
10380.015750,-32865.143825,-14804.118840,-74004.825107
10380.018316,148.041188,5625.565159,-76303.111601
10380.020882,1184.329507,10362.883188,-76915.987999
10380.023448,4589.276840,-8882.471304,-76456.330700
10380.026013,-16580.613101,-2664.741391,-72472.634111
10380.028579,-22650.301825,-5181.441594,-73238.729609
10380.031145,-2664.741391,-14656.077652,-75537.016103
10380.033678,-10214.842000,-3997.112087,-77988.521696
10380.036211,-12583.501014,-4885.359217,-79673.931792
10380.038745,-14656.077652,4293.194464,-75843.454302
10380.041278,-14804.118840,-3701.029710,-70174.347617
10380.043811,-20725.766376,-5921.647536,-71859.757712
10380.046345,-12731.542202,6661.853478,-76303.111601
10380.048878,-24426.796086,-3404.947333,-77528.864398
10380.051412,-16580.613101,-6809.894666,-76303.111601
10380.053945,1924.535449,10658.965565,-76456.330700
10380.056478,-888.247130,-444.123565,-74617.701505
10380.059012,14359.995275,2812.782580,-75843.454302
10380.061545,18209.066173,18949.272115,-77375.645298
10380.064078,-4885.359217,11843.295072,-76456.330700
10380.066612,-7105.977043,1628.453072,-74617.701505
10380.069145,-14804.118840,-11695.253884,-72625.853210
10380.071679,9178.553681,8290.306550,-74770.920605
10380.074212,592.164754,19837.519246,-81512.560987
10380.076745,-13027.624579,7254.018232,-76149.892501
10380.079279,-9770.718434,5329.482782,-74158.044206
10380.081812,-6809.894666,1332.370696,-72472.634111
10380.084345,6217.729913,4589.276840,-75690.235202
10380.086879,12879.583391,15544.324782,-80286.808190
10380.089412,-888.247130,3404.947333,-81512.560987
10380.091946,6809.894666,0.000000,-76915.987999
10380.094479,2220.617826,3256.906145,-74924.139704
10380.097012,8142.265362,12139.377449,-75690.235202
10380.099546,7698.141797,6365.771101,-76915.987999
10380.102079,-18357.107362,-5033.400406,-75843.454302
10380.104612,-12139.377449,-7994.224174,-76303.111601
10380.107146,-25315.043216,3701.029710,-76456.330700
10380.109679,-35677.926404,-11991.336260,-74311.263306
10380.112212,-10658.965565,-3701.029710,-75383.797003
10380.114746,-592.164754,11991.336260,-77222.426198
10380.117279,-4293.194464,148.041188,-77988.521696
10380.119813,-18061.024985,-15840.407159,-71400.100414
10380.122346,-8142.265362,-32865.143825,-73698.386908
10380.124879,21021.848753,-7994.224174,-79673.931792
10380.127413,2220.617826,22354.219448,-80133.589091
10380.129946,-13915.871710,-14359.995275,-76303.111601
10380.132479,-32865.143825,-20133.601622,-73238.729609
10380.135020,-22206.178260,-8290.306550,-71553.319513
10380.137560,-12435.459826,7402.059420,-75843.454302
10380.140100,-17172.777854,3256.906145,-78754.617194
10380.142641,-23390.507767,5477.523971,-76149.892501
10380.145181,-21317.931130,-8290.306550,-74311.263306
10380.147721,3997.112087,3108.864956,-75077.358804
10380.150262,-2072.576638,12879.583391,-76456.330700
10380.152802,1036.288319,7254.018232,-76303.111601
10380.155342,18653.189738,13471.748144,-77682.083497
10380.157883,9770.718434,14211.954086,-77835.302597
10380.160423,-7254.018232,-2516.700203,-73851.606007
10380.162963,-13619.789333,-13767.830521,-73238.729609
10380.165504,4441.235652,1184.329507,-75077.358804
10380.168044,-148.041188,444.123565,-80133.589091
