#time,accel_x,accel_y,accel_z
7972.686640,3404.947333,4737.318029,-76456.330700
7972.689199,3404.947333,4293.194464,-75996.673402
7972.691758,3849.070898,3997.112087,-75383.797003
7972.694317,3701.029710,4293.194464,-76149.892501
7972.696876,3404.947333,4885.359217,-76149.892501
7972.699436,4589.276840,-2664.741391,-76762.768900
7972.701995,5033.400406,-17764.942608,-75843.454302
7972.704554,6809.894666,3849.070898,-73238.729609
7972.707113,-4589.276840,23538.548956,-77375.645298
7972.709675,5921.647536,-2072.576638,-77069.207099
7972.712236,3701.029710,-14656.077652,-77222.426198
7972.714798,-2516.700203,5033.400406,-77682.083497
7972.717360,2220.617826,19541.436869,-75690.235202
7972.719922,33161.226202,10214.842000,-74770.920605
7972.722483,31236.690752,-14211.954086,-76456.330700
7972.725045,-592.164754,6809.894666,-75996.673402
7972.727607,-13767.830521,21762.054695,-74617.701505
7972.730168,2516.700203,-7698.141797,-73698.386908
7972.732730,21614.013506,-5625.565159,-74770.920605
7972.735292,-3108.864956,11103.089130,-77835.302597
7972.737854,-15692.365970,17320.819043,-79061.055394
7972.740415,-4737.318029,14804.118840,-76915.987999
7972.742977,3849.070898,2368.659014,-75690.235202
7972.745539,-3256.906145,-12879.583391,-76762.768900
7972.748100,-9770.718434,5773.606348,-74464.482406
7972.750662,-9918.759623,10362.883188,-76609.549800
7972.753224,2072.576638,17764.942608,-76303.111601
7972.755786,12731.542202,-3108.864956,-77835.302597
7972.758347,5773.606348,13175.665768,-75383.797003
7972.760909,-12287.418637,6957.935855,-76456.330700
7972.763471,-5033.400406,-10510.924376,-77069.207099
7972.766032,16728.654289,2368.659014,-74617.701505
7972.768594,6513.812290,12287.418637,-75690.235202
7972.771156,-11843.295072,5921.647536,-76303.111601
7972.773717,-12287.418637,0.000000,-76456.330700
7972.776279,9622.677246,10658.965565,-73698.386908
7972.778841,11547.212695,10955.047942,-75843.454302
7972.781403,-1036.288319,10214.842000,-79061.055394
7972.783964,-3552.988522,10807.006753,-74464.482406
7972.786526,-2812.782580,9178.553681,-72932.291410
7972.789088,888.247130,-9474.636058,-75690.235202
7972.791651,-25759.166782,-5625.565159,-80593.246390
7972.794215,-12287.418637,17320.819043,-78448.178995
7972.796778,9178.553681,6809.894666,-76303.111601
7972.799342,12731.542202,-5921.647536,-76303.111601
7972.801905,3701.029710,10362.883188,-74464.482406
7972.804468,-8438.347739,16284.530724,-73391.948708
7972.807032,7994.224174,3701.029710,-74924.139704
7972.809595,11991.336260,5477.523971,-76149.892501
7972.812159,10658.965565,13175.665768,-74311.263306
7972.814722,22946.384202,-5773.606348,-74464.482406
7972.817286,-7698.141797,3404.947333,-75690.235202
7972.819849,-17024.736666,30200.402434,-75690.235202
7972.822413,-592.164754,-11547.212695,-77988.521696
7972.824976,11103.089130,-7994.224174,-76762.768900
7972.827539,3701.029710,-3108.864956,-77528.864398
7972.830103,-3404.947333,14656.077652,-75230.577904
7972.832666,26795.455100,8586.388927,-73698.386908
7972.835230,32124.937883,-12435.459826,-73545.167808
7972.837793,6217.729913,11103.089130,-74464.482406
7972.840357,-14508.036463,4737.318029,-78907.836294
7972.842920,-17764.942608,-5181.441594,-79520.712692
7972.845484,1332.370696,4145.153275,-77222.426198
7972.848047,-1036.288319,11399.171507,-76609.549800
7972.850611,6365.771101,-4885.359217,-75690.235202
7972.853174,13323.706956,4441.235652,-74004.825107
7972.855737,16432.571912,5625.565159,-74158.044206
7972.858301,9770.718434,11399.171507,-74770.920605
7972.860864,3256.906145,3849.070898,-75843.454302
7972.863428,-13323.706956,5329.482782,-80133.589091
7972.865991,-888.247130,19245.354492,-77528.864398
7972.868555,11103.089130,3108.864956,-75843.454302
7972.871118,4145.153275,12435.459826,-74311.263306
7972.873682,-3997.112087,14359.995275,-75690.235202
7972.876245,-4441.235652,-5921.647536,-77528.864398
7972.878809,14656.077652,-3256.906145,-75383.797003
7972.881372,7846.182985,148.041188,-77222.426198
7972.883935,-1184.329507,2220.617826,-77528.864398
7972.886499,6069.688724,9326.594869,-76303.111601
7972.889062,19097.313304,-1036.288319,-73698.386908
7972.891626,9326.594869,7994.224174,-74617.701505
7972.894191,16580.613101,11251.130318,-74924.139704
7972.896756,13471.748144,-1480.411884,-76303.111601
7972.899321,2072.576638,-2960.823768,-76609.549800
7972.901885,-6809.894666,10955.047942,-77222.426198
7972.904450,-17912.983796,-5477.523971,-79367.493593
7972.907015,-9326.594869,16876.695478,-77069.207099
7972.909580,20281.642811,-888.247130,-74924.139704
7972.912145,21910.095883,-8586.388927,-76149.892501
7972.914710,30200.402434,6217.729913,-72779.072310
7972.917275,11251.130318,3552.988522,-74770.920605
7972.919840,5181.441594,27091.537477,-70634.004916
7972.922405,18653.189738,15988.448347,-73545.167808
7972.924970,-6957.935855,-9622.677246,-79827.150892
7972.927535,-20577.725188,12287.418637,-78907.836294
7972.930100,-14952.160028,12731.542202,-76456.330700
7972.932664,11251.130318,3997.112087,-74464.482406
7972.935229,21021.848753,4885.359217,-74004.825107
7972.937794,7698.141797,7846.182985,-74924.139704
7972.940359,-740.205942,18949.272115,-75383.797003
7972.942924,-1480.411884,18505.148550,-75537.016103
7972.945489,21317.931130,-3404.947333,-75077.358804
7972.948054,6957.935855,-12287.418637,-76762.768900
7972.950619,-20429.683999,9030.512492,-77835.302597
7972.953184,-21614.013506,19393.395680,-77375.645298
7972.955749,3701.029710,1036.288319,-76456.330700
7972.958314,3404.947333,6365.771101,-76762.768900
7972.960879,11695.253884,4885.359217,-74158.044206
7972.963443,2960.823768,-10807.006753,-74311.263306
7972.966008,-3849.070898,4885.359217,-76456.330700
7972.968573,888.247130,3701.029710,-78294.959896
7972.971138,4145.153275,-296.082377,-78141.740796
7972.973703,10955.047942,10807.006753,-74311.263306
7972.976268,-4589.276840,11399.171507,-76762.768900
7972.978833,296.082377,7254.018232,-75843.454302
7972.981398,6661.853478,6957.935855,-74311.263306
7972.983963,10362.883188,1776.494261,-74158.044206
7972.986528,-11695.253884,-9326.594869,-77682.083497
7972.989093,-19837.519246,18653.189738,-77835.302597
7972.991658,-7402.059420,20281.642811,-76762.768900
7972.994222,7698.141797,-11251.130318,-77222.426198
7972.996759,8586.388927,7698.141797,-75383.797003
7972.999297,-6809.894666,15100.201217,-75537.016103
7973.001834,8142.265362,7550.100608,-74158.044206
7973.004371,13767.830521,2812.782580,-75230.577904
7973.006908,24870.919651,4441.235652,-73698.386908
7973.009445,15100.201217,-7698.141797,-75690.235202
7973.011982,-11103.089130,9918.759623,-76149.892501
7973.014519,-16432.571912,25611.125593,-76456.330700
7973.017056,-5921.647536,-17616.901420,-78907.836294
7973.019593,4885.359217,740.205942,-76762.768900
7973.022130,6069.688724,-1036.288319,-76456.330700
7973.024667,18505.148550,13175.665768,-72779.072310
7973.027204,36122.049970,3552.988522,-73698.386908
7973.029741,22058.137072,-9178.553681,-75230.577904
7973.032278,-2516.700203,21317.931130,-74311.263306
7973.034815,-13175.665768,2960.823768,-77682.083497
7973.037352,-19837.519246,-7698.141797,-78907.836294
7973.039889,-1332.370696,4589.276840,-77528.864398
7973.042426,9474.636058,1776.494261,-76609.549800
7973.044963,12879.583391,-4145.153275,-76303.111601
7973.047500,6217.729913,3849.070898,-74924.139704
7973.050037,5329.482782,6957.935855,-74770.920605
7973.052574,7994.224174,12731.542202,-74770.920605
7973.055111,5625.565159,19245.354492,-72932.291410
7973.057648,-1332.370696,4737.318029,-78907.836294
7973.060185,8438.347739,3108.864956,-78448.178995
7973.062722,1480.411884,-11843.295072,-78601.398095
7973.065259,-2368.659014,-8142.265362,-75230.577904
7973.067796,20725.766376,11547.212695,-68488.937521
7973.070333,-7994.224174,4145.153275,-77528.864398
7973.072870,13175.665768,-2664.741391,-76915.987999
7973.075407,14804.118840,-4589.276840,-77835.302597
7973.077944,9770.718434,3701.029710,-76609.549800
7973.080481,7254.018232,7846.182985,-75383.797003
7973.083018,-2368.659014,-13027.624579,-77528.864398
7973.085555,740.205942,2220.617826,-75383.797003
7973.088092,4885.359217,14656.077652,-74924.139704
7973.090629,8142.265362,-4589.276840,-77835.302597
7973.093166,12583.501014,148.041188,-76456.330700
7973.095703,9770.718434,-17468.860231,-77375.645298
7973.098248,-18357.107362,7402.059420,-75843.454302
7973.100791,-8882.471304,6661.853478,-76915.987999
7973.103335,-14063.912898,2220.617826,-78448.178995
7973.105878,1036.288319,7105.977043,-75077.358804
7973.108422,16432.571912,10362.883188,-74004.825107
7973.110965,-2516.700203,2072.576638,-75690.235202
7973.113508,-2220.617826,22946.384202,-75996.673402
7973.116052,12287.418637,4441.235652,-76149.892501
7973.118595,6809.894666,-15248.242405,-77835.302597
7973.121139,-17024.736666,2220.617826,-78601.398095
7973.123682,-21021.848753,13027.624579,-75383.797003
7973.126225,6661.853478,10807.006753,-74311.263306
7973.128769,17172.777854,5477.523971,-74158.044206
7973.131312,7846.182985,10510.924376,-74311.263306
7973.133856,-5033.400406,20725.766376,-75690.235202
7973.136399,24426.796086,3404.947333,-73238.729609
7973.138942,9474.636058,-13471.748144,-77682.083497
7973.141486,-13323.706956,12583.501014,-78448.178995
7973.144029,-15544.324782,21317.931130,-76762.768900
7973.146573,9326.594869,10066.800811,-74004.825107
7973.149116,-4441.235652,19985.560434,-77988.521696
7973.151659,-444.123565,4293.194464,-77222.426198
7973.154203,1480.411884,-3256.906145,-75843.454302
7973.156746,3404.947333,8882.471304,-73698.386908
7973.159290,-5329.482782,11251.130318,-78907.836294
7973.161833,7994.224174,8438.347739,-75230.577904
7973.164376,4885.359217,5625.565159,-75537.016103
7973.166920,5181.441594,11547.212695,-75537.016103
7973.169463,2516.700203,-3256.906145,-76456.330700
7973.172007,-6957.935855,-7846.182985,-76303.111601
7973.174550,-9030.512492,20577.725188,-74464.482406
7973.177093,-10955.047942,17912.983796,-77222.426198
7973.179637,1628.453072,-7698.141797,-79061.055394
7973.182180,6661.853478,8734.430116,-76609.549800
7973.184724,3997.112087,24426.796086,-73391.948708
7973.187267,14508.036463,-592.164754,-73851.606007
7973.189810,11843.295072,-4589.276840,-75690.235202
7973.192354,-3404.947333,-9030.512492,-78141.740796
7973.194897,-30792.567187,23982.672521,-78141.740796
7973.197441,2368.659014,28571.949361,-77069.207099
7973.199990,-7105.977043,7698.141797,-76915.987999
7973.202539,6513.812290,-10066.800811,-76915.987999
7973.205088,8586.388927,12879.583391,-76303.111601
7973.207637,13027.624579,-2516.700203,-75537.016103
7973.210186,40119.162056,-8882.471304,-73391.948708
7973.212735,21317.931130,-7698.141797,-75690.235202
7973.215284,-13027.624579,14359.995275,-76149.892501
7973.217833,-19689.478057,24426.796086,-76149.892501
7973.220382,148.041188,-16432.571912,-77069.207099
7973.222931,11399.171507,148.041188,-76915.987999
7973.225480,4737.318029,-740.205942,-76609.549800
7973.228029,444.123565,-1480.411884,-77069.207099
7973.230578,3108.864956,6809.894666,-75690.235202
7973.233127,8586.388927,-3849.070898,-76149.892501
7973.235676,11695.253884,5477.523971,-75077.358804
7973.238225,7105.977043,9770.718434,-74311.263306
7973.240774,7550.100608,7402.059420,-72472.634111
7973.243323,20577.725188,-15248.242405,-74617.701505
7973.245872,6809.894666,-4145.153275,-80286.808190
7973.248421,-15248.242405,-5181.441594,-79520.712692
7973.250970,-10066.800811,7846.182985,-77528.864398
7973.253520,26647.413912,2664.741391,-69561.471218
7973.256069,8290.306550,-16284.530724,-74770.920605
7973.258618,-5773.606348,8882.471304,-77222.426198
7973.261167,-2812.782580,6957.935855,-78601.398095
7973.263716,7994.224174,4293.194464,-76915.987999
7973.266265,22502.260637,-14656.077652,-75383.797003
7973.268814,5181.441594,3108.864956,-74311.263306
7973.271363,-6809.894666,19393.395680,-74004.825107
7973.273912,3701.029710,-3849.070898,-76762.768900
7973.276461,10362.883188,-2960.823768,-77682.083497
7973.279010,12731.542202,-14211.954086,-77988.521696
7973.281559,-10658.965565,8142.265362,-76149.892501
7973.284108,-8586.388927,10510.924376,-75996.673402
7973.286657,8734.430116,-148.041188,-76303.111601
7973.289206,18949.272115,7105.977043,-74464.482406
7973.291755,15544.324782,2220.617826,-74004.825107
7973.294304,-6069.688724,7402.059420,-75996.673402
7973.296853,-3256.906145,24574.837274,-76762.768900
7973.299402,16580.613101,-1628.453072,-75843.454302
7973.301955,7550.100608,-16432.571912,-77528.864398
7973.304509,-20725.766376,8734.430116,-78448.178995
7973.307062,-18949.272115,13027.624579,-76609.549800
7973.309615,7846.182985,5921.647536,-75996.673402
7973.312168,14211.954086,7105.977043,-74770.920605
7973.314721,9918.759623,15100.201217,-72932.291410
7973.317275,1036.288319,6365.771101,-76149.892501
7973.319828,-9030.512492,296.082377,-77835.302597
7973.322381,-1480.411884,19689.478057,-78141.740796
7973.324934,-1776.494261,15396.283594,-76609.549800
7973.327487,6661.853478,888.247130,-75996.673402
7973.330040,-10807.006753,-6661.853478,-79673.931792
7973.332594,-3552.988522,888.247130,-75843.454302
7973.335147,10066.800811,16432.571912,-72166.195912
7973.337700,7698.141797,19541.436869,-75077.358804
7973.340253,9918.759623,10066.800811,-76149.892501
7973.342806,-17764.942608,1776.494261,-81972.218286
7973.345360,3552.988522,7994.224174,-74770.920605
7973.347913,4737.318029,11251.130318,-73238.729609
7973.350466,5033.400406,30348.443622,-73391.948708
7973.353019,10955.047942,-148.041188,-75996.673402
7973.355572,-2812.782580,-5773.606348,-77069.207099
7973.358125,6513.812290,740.205942,-75537.016103
7973.360679,-11399.171507,20429.683999,-77222.426198
7973.363232,-2812.782580,8438.347739,-76609.549800
7973.365785,-2368.659014,9178.553681,-75690.235202
7973.368338,6365.771101,16284.530724,-74158.044206
7973.370891,14508.036463,1036.288319,-74464.482406
7973.373445,17024.736666,-19837.519246,-76762.768900
7973.375998,-17172.777854,-444.123565,-78294.959896
7973.378551,-17320.819043,29904.320057,-76149.892501
7973.381104,-3997.112087,2960.823768,-77835.302597
7973.383657,5033.400406,-7550.100608,-77222.426198
7973.386211,9326.594869,16284.530724,-75537.016103
7973.388764,4441.235652,5625.565159,-76609.549800
7973.391317,35085.761651,10510.924376,-71553.319513
7973.393870,43672.150578,-7105.977043,-73238.729609
7973.396423,12731.542202,-3552.988522,-75230.577904
7973.398976,-15396.283594,33605.349767,-75230.577904
7973.401530,-16432.571912,-4441.235652,-78448.178995
7973.404087,8438.347739,-8290.306550,-76303.111601
7973.406643,10066.800811,-444.123565,-76609.549800
7973.409200,-1628.453072,1924.535449,-77222.426198
7973.411757,4737.318029,9326.594869,-76149.892501
7973.414314,11251.130318,-6217.729913,-76609.549800
7973.416871,11251.130318,17172.777854,-73698.386908
7973.419428,444.123565,-148.041188,-76762.768900
7973.421985,-16432.571912,-10658.965565,-77988.521696
7973.424542,7105.977043,-888.247130,-74924.139704
7973.427098,7698.141797,9030.512492,-78294.959896
7973.429655,-1924.535449,7994.224174,-79827.150892
7973.432212,6957.935855,-6809.894666,-74004.825107
7973.434769,6809.894666,-7105.977043,-72779.072310
7973.437326,10066.800811,3256.906145,-74464.482406
7973.439883,10362.883188,-4737.318029,-77682.083497
7973.442440,10807.006753,10362.883188,-77528.864398
7973.444996,20429.683999,10066.800811,-75537.016103
7973.447553,14804.118840,-5477.523971,-74770.920605
7973.450110,444.123565,9622.677246,-74311.263306
7973.452667,0.000000,8142.265362,-75690.235202
7973.455224,-5921.647536,13619.789333,-75996.673402
7973.457781,13915.871710,11547.212695,-76762.768900
7973.460338,17024.736666,-16728.654289,-78448.178995
7973.462895,10510.924376,-5625.565159,-75383.797003
7973.465451,-4145.153275,10955.047942,-75537.016103
7973.468008,-6069.688724,5625.565159,-75690.235202
7973.470565,888.247130,15544.324782,-75843.454302
7973.473122,-12879.583391,-2516.700203,-79367.493593
7973.475679,-5773.606348,17320.819043,-76149.892501
7973.478236,13915.871710,6365.771101,-75690.235202
7973.480793,14211.954086,-18061.024985,-77069.207099
7973.483350,-8438.347739,3701.029710,-76762.768900
7973.485906,-6217.729913,18061.024985,-75230.577904
7973.488463,-12435.459826,20725.766376,-75077.358804
7973.491020,2664.741391,5625.565159,-76609.549800
7973.493577,6661.853478,-1628.453072,-76762.768900
7973.496134,-592.164754,11399.171507,-74924.139704
7973.498691,-10510.924376,8734.430116,-76456.330700
7973.501248,9030.512492,12879.583391,-75996.673402
7973.503805,17320.819043,4145.153275,-76762.768900
7973.506364,18949.272115,7105.977043,-72779.072310
7973.508923,-12139.377449,32865.143825,-77222.426198
7973.511482,-3849.070898,6809.894666,-76303.111601
7973.514042,2960.823768,3256.906145,-74924.139704
7973.516601,29312.155303,16876.695478,-72166.195912
7973.519160,-11695.253884,-888.247130,-82278.656485
7973.521720,-7402.059420,888.247130,-77682.083497
7973.524279,7254.018232,28868.031738,-71706.538613
7973.526838,14804.118840,5329.482782,-73238.729609
7973.529398,2960.823768,-2664.741391,-75230.577904
7973.531957,-18801.230927,20429.683999,-76456.330700
7973.534516,-10214.842000,6957.935855,-77528.864398
7973.537076,10362.883188,444.123565,-75996.673402
7973.539635,5625.565159,3108.864956,-77222.426198
7973.542194,-13027.624579,10807.006753,-77375.645298
7973.544753,-2516.700203,11399.171507,-74158.044206
7973.547313,-4885.359217,5773.606348,-76456.330700
7973.549872,15248.242405,21317.931130,-73545.167808
7973.552431,29608.237680,-4737.318029,-74770.920605
7973.554991,4145.153275,-296.082377,-76149.892501
7973.557550,-8438.347739,25611.125593,-75077.358804
7973.560109,-3997.112087,-10066.800811,-78601.398095
7973.562669,5181.441594,-5625.565159,-76762.768900
7973.565228,-4737.318029,-2516.700203,-77682.083497
7973.567787,-2220.617826,20873.807564,-75077.358804
7973.570347,33605.349767,4589.276840,-73851.606007
7973.572906,34641.638086,-15544.324782,-74617.701505
7973.575465,4589.276840,18357.107362,-74464.482406
7973.578024,-11991.336260,15100.201217,-75383.797003
7973.580584,740.205942,13323.706956,-75996.673402
7973.583143,11251.130318,-12879.583391,-77069.207099
7973.585702,8290.306550,2368.659014,-76609.549800
7973.588262,-1924.535449,9178.553681,-76609.549800
7973.590821,3552.988522,-740.205942,-75537.016103
7973.593380,-2812.782580,-9030.512492,-77222.426198
7973.595940,-14359.995275,-6365.771101,-78601.398095
7973.598499,-6365.771101,14063.912898,-73085.510509
7973.601058,21614.013506,19245.354492,-72779.072310
7973.603618,24574.837274,-2368.659014,-76762.768900
7973.606177,-8734.430116,-2664.741391,-80133.589091
7973.608739,12287.418637,148.041188,-72472.634111
7973.611300,2220.617826,4885.359217,-73545.167808
7973.613862,11399.171507,0.000000,-75690.235202
7973.616424,25611.125593,-15100.201217,-78141.740796
7973.618985,6809.894666,2072.576638,-77835.302597
7973.621547,-8142.265362,15988.448347,-75537.016103
7973.624109,-6957.935855,4737.318029,-75383.797003
7973.626671,3552.988522,-6809.894666,-77069.207099
7973.629232,-6513.812290,-15692.365970,-80133.589091
7973.631794,-8586.388927,17320.819043,-76915.987999
7973.634356,15692.365970,-2664.741391,-76149.892501
7973.636917,25018.960840,-14359.995275,-75843.454302
7973.639479,22502.260637,14656.077652,-73085.510509
7973.642041,7254.018232,8586.388927,-74464.482406
7973.644603,148.041188,24722.878463,-71706.538613
7973.647164,19541.436869,6217.729913,-75077.358804
7973.649726,-3108.864956,-9178.553681,-79367.493593
7973.652288,-18357.107362,17616.901420,-78448.178995
7973.654850,-13175.665768,15692.365970,-76149.892501
7973.657411,21614.013506,-5921.647536,-74617.701505
7973.659973,18061.024985,5921.647536,-74770.920605
7973.662535,-2812.782580,20725.766376,-74617.701505
7973.665096,-1036.288319,14656.077652,-74924.139704
7973.667658,8290.306550,-3404.947333,-76149.892501
7973.670220,888.247130,4441.235652,-77222.426198
7973.672782,-9326.594869,12435.459826,-76456.330700
7973.675343,-148.041188,24278.754898,-74004.825107
7973.677905,592.164754,-8734.430116,-78294.959896
7973.680467,-2516.700203,-10066.800811,-78601.398095
7973.683028,5477.523971,45004.521274,-72625.853210
7973.685590,11695.253884,9178.553681,-72319.415011
7973.688152,-8290.306550,-26203.290347,-79520.712692
7973.690714,6957.935855,10807.006753,-74770.920605
7973.693275,5921.647536,20577.725188,-76762.768900
7973.695837,1036.288319,-3552.988522,-77528.864398
7973.698399,9474.636058,11547.212695,-74004.825107
7973.700961,-15396.283594,10658.965565,-76303.111601
7973.703522,-444.123565,7402.059420,-73391.948708
7973.706084,-13767.830521,5477.523971,-78754.617194
7973.708646,-4737.318029,2516.700203,-78294.959896
7973.711209,6809.894666,24574.837274,-75077.358804
7973.713772,8586.388927,8438.347739,-76456.330700
7973.716335,11251.130318,-5921.647536,-74158.044206
7973.718898,4293.194464,-5625.565159,-74770.920605
7973.721461,-21762.054695,22798.343014,-77835.302597
7973.724025,10362.883188,14952.160028,-75690.235202
7973.726588,18061.024985,-17024.736666,-76915.987999
7973.729151,6661.853478,9918.759623,-75690.235202
7973.731714,6661.853478,13915.871710,-75077.358804
7973.734277,12139.377449,-2072.576638,-75383.797003
7973.736840,32569.061448,-14656.077652,-74617.701505
7973.739404,2368.659014,-12435.459826,-77682.083497
7973.741967,-19097.313304,20725.766376,-77222.426198
7973.744530,-2664.741391,21910.095883,-75230.577904
7973.747093,16728.654289,-20429.683999,-75537.016103
7973.749656,7402.059420,5773.606348,-76609.549800
7973.752219,-296.082377,22354.219448,-75230.577904
7973.754782,17616.901420,-8586.388927,-76303.111601
7973.757346,18357.107362,-5921.647536,-75690.235202
7973.759909,1036.288319,11991.336260,-75690.235202
7973.762472,-9918.759623,6661.853478,-76762.768900
7973.765035,16136.489536,-19097.313304,-73085.510509
7973.767598,2664.741391,-12879.583391,-74924.139704
7973.770161,1924.535449,2516.700203,-76762.768900
7973.772725,-16728.654289,3256.906145,-82891.532884
7973.775288,16284.530724,4293.194464,-74924.139704
7973.777851,9474.636058,-8586.388927,-75230.577904
7973.780414,7994.224174,1332.370696,-74464.482406
7973.782977,148.041188,8142.265362,-74311.263306
7973.785540,8290.306550,13323.706956,-76762.768900
7973.788104,28423.908173,-4737.318029,-76456.330700
7973.790667,19541.436869,-5625.565159,-75077.358804
7973.793230,-2072.576638,19985.560434,-74617.701505
7973.795793,-3404.947333,20873.807564,-73698.386908
7973.798356,22206.178260,444.123565,-74617.701505
7973.800919,10066.800811,-18357.107362,-78601.398095
7973.803482,-3849.070898,7994.224174,-77069.207099
7973.806046,-13767.830521,8734.430116,-78141.740796
7973.808609,4589.276840,-1776.494261,-74770.920605
7973.811172,20577.725188,8882.471304,-72779.072310
7973.813737,3552.988522,21465.972318,-73085.510509
7973.816301,6513.812290,24574.837274,-74924.139704
7973.818866,9474.636058,-12139.377449,-78754.617194
7973.821431,-3552.988522,-5181.441594,-78601.398095
7973.823996,-16432.571912,28423.908173,-75843.454302
7973.826561,2960.823768,8882.471304,-73851.606007
7973.829125,-2368.659014,8438.347739,-75077.358804
7973.831690,12139.377449,888.247130,-75383.797003
7973.834255,592.164754,14211.954086,-76456.330700
7973.836820,-4737.318029,6513.812290,-76609.549800
7973.839384,1628.453072,-6217.729913,-76609.549800
7973.841949,2812.782580,6513.812290,-75996.673402
7973.844514,1628.453072,-3404.947333,-77222.426198
7973.847079,10510.924376,1184.329507,-73698.386908
7973.849643,17320.819043,-6957.935855,-73698.386908
7973.852208,5921.647536,4145.153275,-75690.235202
7973.854773,-1036.288319,-2812.782580,-75996.673402
7973.857338,6513.812290,-9770.718434,-73698.386908
7973.859902,4293.194464,2960.823768,-76915.987999
7973.862467,-6217.729913,9474.636058,-79214.274493
7973.865032,-6365.771101,20577.725188,-76915.987999
7973.867597,8290.306550,2368.659014,-71706.538613
7973.870161,-148.041188,0.000000,-73391.948708
7973.872726,-9622.677246,13471.748144,-77528.864398
7973.875291,592.164754,3701.029710,-78754.617194
7973.877856,-5921.647536,8734.430116,-78294.959896
7973.880421,1036.288319,17468.860231,-75690.235202
7973.882985,12435.459826,6513.812290,-73851.606007
7973.885550,16432.571912,-22354.219448,-75843.454302
7973.888115,-18653.189738,3404.947333,-76762.768900
7973.890680,-10658.965565,28275.866984,-76609.549800
7973.893244,-13471.748144,17320.819043,-79061.055394
7973.895809,-3849.070898,-22058.137072,-79673.931792
7973.898374,444.123565,8882.471304,-76609.549800
7973.900939,8142.265362,4885.359217,-74617.701505
7973.903503,39082.873738,-3849.070898,-72012.976812
7973.906068,29164.114115,-14211.954086,-74924.139704
7973.908633,-6957.935855,11991.336260,-76609.549800
7973.911198,-17024.736666,34345.555709,-77069.207099
7973.913762,3256.906145,-16580.613101,-77682.083497
7973.916328,9178.553681,-2220.617826,-76149.892501
7973.918893,10214.842000,22946.384202,-74158.044206
7973.921458,19689.478057,-5329.482782,-76762.768900
7973.924024,20429.683999,-8290.306550,-75690.235202
7973.926589,23390.507767,-2664.741391,-73851.606007
7973.929154,1924.535449,33901.432144,-73085.510509
7973.931720,2960.823768,11843.295072,-76609.549800
7973.934285,148.041188,-18061.024985,-76456.330700
7973.936850,-10214.842000,-22502.260637,-79520.712692
7973.939415,7402.059420,25463.084405,-76762.768900
7973.941981,13619.789333,10955.047942,-75843.454302
7973.944546,7846.182985,-12731.542202,-77222.426198
7973.947111,296.082377,-13619.789333,-76149.892501
7973.949677,-15396.283594,11843.295072,-76303.111601
7973.952242,6809.894666,9030.512492,-75843.454302
7973.954807,29904.320057,-9918.759623,-78141.740796
7973.957372,15100.201217,-11843.295072,-76609.549800
7973.959938,5181.441594,26943.496289,-73085.510509
7973.962503,13175.665768,12139.377449,-74464.482406
7973.965068,14952.160028,-25315.043216,-77375.645298
7973.967634,5181.441594,-3552.988522,-77375.645298
7973.970199,-14211.954086,15100.201217,-78601.398095
7973.972764,-7402.059420,5773.606348,-76456.330700
7973.975329,7402.059420,-296.082377,-74311.263306
7973.977895,-5921.647536,14063.912898,-75996.673402
7973.980460,2516.700203,30348.443622,-74617.701505
7973.983025,18801.230927,-7994.224174,-76456.330700
7973.985591,9030.512492,-15692.365970,-76915.987999
7973.988156,9030.512492,-4885.359217,-76456.330700
7973.990721,-22502.260637,24426.796086,-77222.426198
7973.993286,-2072.576638,15100.201217,-74464.482406
7973.995852,11251.130318,-3552.988522,-75230.577904
7973.998417,148.041188,14063.912898,-76915.987999
7974.000982,-3849.070898,14952.160028,-77222.426198
7974.003548,5625.565159,-6957.935855,-75996.673402
7974.006113,6069.688724,-7254.018232,-76915.987999
7974.008678,-1628.453072,9030.512492,-76149.892501
7974.011243,4145.153275,12435.459826,-75077.358804
7974.013809,6661.853478,2960.823768,-76149.892501
7974.016374,4737.318029,9474.636058,-76303.111601
7974.018939,13175.665768,10362.883188,-72319.415011
7974.021505,592.164754,11399.171507,-76915.987999
7974.024071,-5477.523971,4293.194464,-77835.302597
7974.026637,-2960.823768,14359.995275,-77069.207099
7974.029203,4589.276840,12879.583391,-75843.454302
7974.031769,3997.112087,1480.411884,-73698.386908
7974.034335,-4589.276840,7402.059420,-74770.920605
7974.036901,-8142.265362,3256.906145,-77835.302597
7974.039467,-10658.965565,12435.459826,-77375.645298
7974.042033,5773.606348,15248.242405,-75843.454302
7974.044599,9622.677246,3108.864956,-76149.892501
7974.047165,6661.853478,-16876.695478,-76609.549800
7974.049731,-22798.343014,9474.636058,-77069.207099
7974.052297,-16284.530724,25167.002028,-76149.892501
7974.054863,-4589.276840,12435.459826,-76303.111601
7974.057429,4885.359217,-20133.601622,-78601.398095
7974.059995,6365.771101,10214.842000,-77528.864398
7974.062561,7698.141797,4737.318029,-75537.016103
7974.065127,30052.361245,-9770.718434,-73851.606007
7974.067693,15248.242405,-11695.253884,-75077.358804
7974.070259,-11695.253884,14063.912898,-76609.549800
7974.072825,-10362.883188,26647.413912,-76456.330700
7974.075391,9326.594869,-18801.230927,-77222.426198
7974.077957,10362.883188,2072.576638,-75843.454302
7974.080523,6513.812290,1036.288319,-76456.330700
7974.083089,14508.036463,-592.164754,-75690.235202
7974.085655,4145.153275,5329.482782,-75383.797003
7974.088221,-1480.411884,9030.512492,-77375.645298
7974.090787,-14804.118840,8142.265362,-78907.836294
7974.093353,2960.823768,15544.324782,-76303.111601
7974.095919,-5625.565159,6069.688724,-74924.139704
7974.098485,6957.935855,888.247130,-75843.454302
7974.101051,2516.700203,6365.771101,-79214.274493
7974.103617,5181.441594,-2368.659014,-77375.645298
7974.106183,-4589.276840,-14211.954086,-78601.398095
7974.108749,740.205942,6957.935855,-75077.358804
7974.111315,13767.830521,6957.935855,-74004.825107
7974.113881,15100.201217,-7846.182985,-76303.111601
7974.116447,13915.871710,-11843.295072,-76456.330700
7974.119013,7105.977043,14359.995275,-75996.673402
7974.121580,30200.402434,-4885.359217,-73085.510509
7974.124146,3256.906145,-14063.912898,-76456.330700
7974.126713,-17764.942608,12879.583391,-77835.302597
7974.129280,-12879.583391,9030.512492,-77988.521696
7974.131846,10807.006753,4885.359217,-75996.673402
7974.134413,18357.107362,0.000000,-74464.482406
7974.136980,11399.171507,29460.196492,-70634.004916
7974.139546,24722.878463,23982.672521,-71859.757712
7974.142113,8586.388927,-14211.954086,-77682.083497
7974.144679,-15248.242405,5181.441594,-79214.274493
7974.147246,-6661.853478,21614.013506,-76456.330700
7974.149813,-2960.823768,20577.725188,-73698.386908
7974.152379,6217.729913,2220.617826,-76609.549800
7974.154946,1628.453072,7105.977043,-76303.111601
7974.157512,-2664.741391,22502.260637,-74770.920605
7974.160079,1924.535449,3552.988522,-77528.864398
7974.162646,6217.729913,-9474.636058,-77835.302597
7974.165212,-4885.359217,740.205942,-77988.521696
7974.167779,4589.276840,18505.148550,-73851.606007
7974.170346,22798.343014,19097.313304,-71859.757712
7974.172912,15396.283594,-4293.194464,-74004.825107
7974.175479,20281.642811,2516.700203,-74004.825107
7974.178045,2812.782580,14952.160028,-74311.263306
7974.180612,148.041188,-4145.153275,-75383.797003
7974.183179,2812.782580,23094.425390,-73545.167808
7974.185745,888.247130,5329.482782,-76762.768900
7974.188312,4885.359217,12583.501014,-75230.577904
7974.190879,-7105.977043,8586.388927,-76609.549800
7974.193445,-13323.706956,-296.082377,-76915.987999
7974.196012,3997.112087,24426.796086,-74464.482406
7974.198578,14063.912898,592.164754,-76456.330700
7974.201145,1924.535449,-444.123565,-76762.768900
7974.203712,-7698.141797,11399.171507,-75230.577904
7974.206278,7402.059420,28719.990550,-73085.510509
7974.208845,31532.773129,-9030.512492,-73851.606007
7974.211411,18801.230927,-12435.459826,-76915.987999
7974.213978,6365.771101,18801.230927,-75383.797003
7974.216544,4885.359217,4589.276840,-76456.330700
7974.219111,11695.253884,-16284.530724,-76303.111601
7974.221677,7402.059420,-12435.459826,-77528.864398
7974.224244,-19985.560434,22798.343014,-76456.330700
7974.226810,6217.729913,12287.418637,-74311.263306
7974.229377,27239.578666,-14804.118840,-74617.701505
7974.231944,18801.230927,5773.606348,-74158.044206
7974.234510,0.000000,12435.459826,-76609.549800
7974.237077,0.000000,-1480.411884,-76915.987999
7974.239643,15988.448347,3701.029710,-76149.892501
7974.242210,15544.324782,-2516.700203,-75996.673402
7974.244776,19837.519246,-2812.782580,-75537.016103
7974.247343,-4293.194464,26351.331535,-74770.920605
7974.249909,10510.924376,20725.766376,-75077.358804
7974.252476,11843.295072,4145.153275,-73391.948708
7974.255042,8142.265362,10955.047942,-76149.892501
7974.257609,-6809.894666,5773.606348,-79520.712692
7974.260175,5773.606348,-296.082377,-76149.892501
7974.262742,10955.047942,12879.583391,-76303.111601
7974.265309,19689.478057,-5329.482782,-75383.797003
7974.267875,11399.171507,-9178.553681,-74770.920605
7974.270442,-7698.141797,13027.624579,-76456.330700
7974.273008,6957.935855,5477.523971,-76149.892501
7974.275575,-5329.482782,11843.295072,-77375.645298
7974.278141,9178.553681,13323.706956,-76456.330700
7974.280708,20577.725188,-10658.965565,-75077.358804
7974.283274,14359.995275,-10510.924376,-75843.454302
7974.285841,-3108.864956,1036.288319,-77835.302597
7974.288407,-9030.512492,13027.624579,-75537.016103
7974.290974,-4737.318029,11695.253884,-76149.892501
7974.293541,-13027.624579,2516.700203,-77528.864398
7974.296107,-3849.070898,22946.384202,-75843.454302
7974.298674,14063.912898,2368.659014,-76762.768900
7974.301240,21910.095883,-15840.407159,-76456.330700
7974.303807,2516.700203,18357.107362,-74464.482406
7974.306373,-13619.789333,21465.972318,-76149.892501
7974.308940,-148.041188,17764.942608,-74464.482406
7974.311506,7698.141797,296.082377,-75230.577904
7974.314073,2664.741391,14508.036463,-75843.454302
7974.316640,-888.247130,11103.089130,-76609.549800
7974.319206,888.247130,-4145.153275,-76915.987999
7974.321773,-7254.018232,-3997.112087,-78601.398095
7974.324339,1628.453072,-13619.789333,-77069.207099
7974.326906,-148.041188,2812.782580,-74617.701505
7974.329472,-5329.482782,-5477.523971,-77528.864398
7974.332039,3108.864956,-1776.494261,-75537.016103
7974.334606,18801.230927,10362.883188,-72319.415011
7974.337172,3256.906145,12287.418637,-75537.016103
7974.339739,444.123565,6069.688724,-76456.330700
7974.342305,-5477.523971,7402.059420,-76149.892501
7974.344872,-3701.029710,13027.624579,-73851.606007
7974.347438,3256.906145,7254.018232,-75843.454302
7974.350005,-740.205942,19985.560434,-75996.673402
7974.352572,5625.565159,740.205942,-76456.330700
7974.355138,6069.688724,-1628.453072,-76303.111601
7974.357705,-5773.606348,6513.812290,-76149.892501
7974.360271,1924.535449,32421.020260,-72166.195912
7974.362838,29164.114115,740.205942,-73238.729609
7974.365404,13027.624579,-8734.430116,-76609.549800
7974.367971,-4737.318029,24870.919651,-75537.016103
7974.370538,5329.482782,5625.565159,-75843.454302
7974.373104,7698.141797,-16136.489536,-76456.330700
7974.375671,3108.864956,-14656.077652,-77835.302597
7974.378237,-23390.507767,22650.301825,-77835.302597
7974.380804,7402.059420,15840.407159,-74464.482406
7974.383370,31532.773129,-12287.418637,-74311.263306
7974.385937,18949.272115,-2960.823768,-74617.701505
7974.388504,-148.041188,16284.530724,-75230.577904
7974.391070,-592.164754,-1924.535449,-76303.111601
7974.393637,7846.182985,-18209.066173,-78448.178995
7974.396203,-6069.688724,4589.276840,-77528.864398
7974.398770,-18505.148550,2960.823768,-78754.617194
7974.401336,-21614.013506,-9178.553681,-79673.931792
7974.403903,-7698.141797,-15988.448347,-75843.454302
7974.406470,-21169.889941,8438.347739,-79673.931792
7974.409035,-4737.318029,13915.871710,-77528.864398
7974.411601,12287.418637,-8586.388927,-75843.454302
7974.414167,3404.947333,148.041188,-77222.426198
7974.416733,15988.448347,6069.688724,-75383.797003
7974.419299,9622.677246,-10362.883188,-76303.111601
7974.421865,6957.935855,11103.089130,-74617.701505
7974.424431,10955.047942,4293.194464,-74311.263306
7974.426997,7994.224174,2812.782580,-76915.987999
7974.429563,16136.489536,-15988.448347,-77375.645298
7974.432128,-3552.988522,-2516.700203,-75383.797003
7974.434694,-11547.212695,888.247130,-77988.521696
7974.437260,-18061.024985,10658.965565,-77375.645298
7974.439826,592.164754,7994.224174,-75843.454302
7974.442392,16728.654289,3404.947333,-74004.825107
7974.444958,7254.018232,23242.466579,-72012.976812
7974.447524,16432.571912,24278.754898,-73698.386908
7974.450090,9474.636058,-12731.542202,-77528.864398
7974.452656,-10510.924376,-740.205942,-78601.398095
7974.455222,-20873.807564,23982.672521,-77528.864398
7974.457787,13175.665768,-3701.029710,-73391.948708
7974.460353,16580.613101,-888.247130,-74770.920605
7974.462919,-2960.823768,22946.384202,-75383.797003
7974.465485,888.247130,18801.230927,-74617.701505
7974.468051,1036.288319,4145.153275,-76149.892501
7974.470617,2072.576638,-12731.542202,-77069.207099
7974.473183,-296.082377,14952.160028,-75690.235202
7974.475749,23538.548956,26795.455100,-71400.100414
7974.478315,7846.182985,-740.205942,-75996.673402
7974.480880,-12583.501014,-13027.624579,-80440.027290
7974.483446,-20281.642811,7254.018232,-78601.398095
7974.486012,12139.377449,14359.995275,-72319.415011
7974.488578,16876.695478,1332.370696,-73851.606007
7974.491144,-592.164754,4145.153275,-77222.426198
7974.493710,-17764.942608,17468.860231,-77375.645298
7974.496276,-11399.171507,15544.324782,-75690.235202
7974.498842,-5773.606348,2516.700203,-77222.426198
7974.501408,-5625.565159,-5625.565159,-78601.398095
7974.503974,-2072.576638,18209.066173,-76149.892501
7974.506539,7105.977043,14804.118840,-74464.482406
7974.509105,18505.148550,-22650.301825,-76149.892501
7974.511671,-13323.706956,1776.494261,-77528.864398
7974.514236,-12583.501014,35085.761651,-74924.139704
7974.516802,7846.182985,-1924.535449,-75996.673402
7974.519367,12731.542202,-10807.006753,-77222.426198
7974.521933,7550.100608,10658.965565,-76762.768900
7974.524499,10214.842000,740.205942,-75843.454302
7974.527064,20281.642811,-28719.990550,-76609.549800
7974.529630,-15840.407159,4737.318029,-77835.302597
7974.532195,-5181.441594,18653.189738,-75690.235202
7974.534761,-4737.318029,25463.084405,-76609.549800
7974.537326,9622.677246,-20429.683999,-77528.864398
7974.539892,1332.370696,-2516.700203,-76456.330700
7974.542457,-7254.018232,11251.130318,-75843.454302
7974.545023,12731.542202,-9030.512492,-76762.768900
7974.547588,-6661.853478,-11695.253884,-80133.589091
7974.550154,-18949.272115,-592.164754,-80133.589091
7974.552720,-9178.553681,14508.036463,-74770.920605
7974.555285,-2072.576638,-3404.947333,-77222.426198
7974.557851,7254.018232,-6957.935855,-74617.701505
7974.560416,19985.560434,-12879.583391,-74924.139704
7974.562982,2960.823768,-5477.523971,-77069.207099
7974.565547,-8438.347739,10214.842000,-77528.864398
7974.568113,9178.553681,296.082377,-76149.892501
7974.570678,29016.072926,-8290.306550,-73085.510509
7974.573244,8586.388927,9030.512492,-75383.797003
7974.575809,-8290.306550,22058.137072,-76149.892501
7974.578375,37454.420665,-7105.977043,-71859.757712
7974.580941,19097.313304,-14508.036463,-75690.235202
7974.583506,-10658.965565,10510.924376,-78754.617194
7974.586072,-13767.830521,11991.336260,-77375.645298
7974.588637,9770.718434,-1184.329507,-75230.577904
7974.591203,14211.954086,-296.082377,-75077.358804
7974.593768,-9030.512492,17320.819043,-76303.111601
7974.596334,740.205942,32717.102636,-75077.358804
7974.598899,14508.036463,-8734.430116,-76609.549800
7974.601465,10362.883188,-15840.407159,-77222.426198
7974.604030,-8734.430116,25463.084405,-75843.454302
7974.606596,8290.306550,7994.224174,-73391.948708
7974.609161,5033.400406,-4885.359217,-75843.454302
7974.611727,-8586.388927,14952.160028,-76762.768900
7974.614293,-7994.224174,24870.919651,-75690.235202
7974.616858,2960.823768,2516.700203,-76456.330700
7974.619424,5329.482782,-3552.988522,-75537.016103
7974.621989,-6661.853478,0.000000,-78294.959896
7974.624555,-13323.706956,6661.853478,-74617.701505
7974.627121,7698.141797,11695.253884,-73545.167808
7974.629686,-10066.800811,1036.288319,-77682.083497
7974.632252,13471.748144,2368.659014,-72779.072310
7974.634817,4441.235652,15396.283594,-76456.330700
7974.637383,-1036.288319,3997.112087,-77375.645298
7974.639948,1776.494261,10510.924376,-75077.358804
7974.642514,-8438.347739,12287.418637,-76303.111601
7974.645080,-3849.070898,11399.171507,-74924.139704
7974.647645,2812.782580,19689.478057,-73851.606007
7974.650211,4885.359217,888.247130,-78601.398095
7974.652776,4737.318029,-740.205942,-78448.178995
7974.655342,740.205942,2960.823768,-77222.426198
7974.657908,-15100.201217,30940.608376,-74464.482406
7974.660473,8734.430116,14656.077652,-72932.291410
7974.663039,14952.160028,-13767.830521,-77222.426198
7974.665604,8734.430116,12139.377449,-75690.235202
7974.668170,3997.112087,4441.235652,-77528.864398
7974.670736,6513.812290,-18209.066173,-77835.302597
7974.673301,2664.741391,-12435.459826,-77528.864398
7974.675867,-8734.430116,34049.473332,-74464.482406
7974.678432,19245.354492,8586.388927,-73851.606007
7974.680998,26795.455100,-19837.519246,-75537.016103
7974.683564,8882.471304,11547.212695,-74924.139704
7974.686129,-3849.070898,11547.212695,-77069.207099
7974.688695,9178.553681,4737.318029,-76456.330700
7974.691260,10362.883188,-14359.995275,-76915.987999
7974.693826,3997.112087,8882.471304,-76915.987999
7974.696391,-3997.112087,6217.729913,-77528.864398
7974.698957,-2072.576638,3997.112087,-76149.892501
7974.701523,-3108.864956,7846.182985,-75383.797003
7974.704088,4293.194464,-7698.141797,-77222.426198
7974.706654,8586.388927,-6513.812290,-76609.549800
7974.709219,-4737.318029,2960.823768,-79367.493593
7974.711785,1332.370696,4589.276840,-77528.864398
7974.714351,13619.789333,-9030.512492,-76303.111601
7974.716916,13175.665768,5477.523971,-74924.139704
7974.719481,9770.718434,6069.688724,-76303.111601
7974.722046,-14508.036463,2220.617826,-78141.740796
7974.724611,2072.576638,17912.983796,-75383.797003
7974.727176,27091.537477,-12287.418637,-74924.139704
7974.729741,21762.054695,-17320.819043,-76915.987999
7974.732306,-6809.894666,6217.729913,-78448.178995
7974.734871,-15100.201217,13471.748144,-75537.016103
7974.737437,444.123565,9474.636058,-75383.797003
7974.740002,-10066.800811,7402.059420,-76456.330700
7974.742567,-7698.141797,26499.372724,-74924.139704
7974.745132,10658.965565,-3701.029710,-77528.864398
7974.747697,18801.230927,-18949.272115,-76456.330700
7974.750262,3404.947333,27535.661042,-74004.825107
7974.752827,-5477.523971,28868.031738,-75077.358804
7974.755392,6069.688724,14656.077652,-74158.044206
7974.757957,11695.253884,-1480.411884,-75383.797003
7974.760522,-4145.153275,17024.736666,-76303.111601
7974.763088,-5181.441594,13619.789333,-75843.454302
7974.765653,-888.247130,-13471.748144,-78141.740796
7974.768218,-14952.160028,-11991.336260,-80133.589091
7974.770783,-9178.553681,25463.084405,-78448.178995
7974.773348,14359.995275,1776.494261,-73238.729609
7974.775913,4885.359217,-12731.542202,-74924.139704
7974.778478,11843.295072,12139.377449,-72932.291410
7974.781043,-2664.741391,17912.983796,-77222.426198
7974.783608,-1776.494261,9326.594869,-75690.235202
7974.786174,6365.771101,3997.112087,-75230.577904
7974.788739,-296.082377,8142.265362,-74464.482406
7974.791304,-12139.377449,22798.343014,-75690.235202
7974.793869,-1628.453072,9622.677246,-77528.864398
7974.796434,9622.677246,-9474.636058,-77375.645298
7974.798999,1184.329507,2664.741391,-76609.549800
7974.801564,6957.935855,38786.791361,-72012.976812
7974.804129,24722.878463,-10510.924376,-73085.510509
7974.806694,7254.018232,-1924.535449,-75230.577904
7974.809260,-8142.265362,29608.237680,-75690.235202
7974.811825,-1332.370696,-10066.800811,-78754.617194
7974.814390,4441.235652,-16876.695478,-78448.178995
7974.816955,6069.688724,-14508.036463,-77069.207099
7974.819520,-3404.947333,28127.825796,-74004.825107
7974.822084,14359.995275,6661.853478,-74464.482406
7974.824649,16728.654289,-11103.089130,-76303.111601
7974.827214,6809.894666,13915.871710,-75383.797003
7974.829779,3108.864956,6513.812290,-76609.549800
7974.832344,11103.089130,-12879.583391,-75230.577904
7974.834909,1184.329507,-6957.935855,-77069.207099
7974.837473,-3701.029710,9918.759623,-76149.892501
7974.840038,-15248.242405,2664.741391,-80286.808190
7974.842603,7846.182985,9474.636058,-75996.673402
7974.845168,28127.825796,14804.118840,-70174.347617
7974.847733,-16432.571912,4441.235652,-80286.808190
7974.850297,15100.201217,-12139.377449,-75690.235202
7974.852862,12583.501014,-6069.688724,-76149.892501
7974.855427,8290.306550,10510.924376,-75843.454302
7974.857992,13027.624579,-2516.700203,-76303.111601
7974.860557,9474.636058,-740.205942,-77222.426198
7974.863122,10510.924376,4737.318029,-73698.386908
7974.865686,148.041188,-23982.672521,-77835.302597
7974.868251,-16876.695478,3849.070898,-78294.959896
7974.870816,-6809.894666,13471.748144,-77069.207099
7974.873381,18801.230927,-5329.482782,-76303.111601
7974.875946,31976.896694,-8734.430116,-74158.044206
7974.878510,-2664.741391,8586.388927,-76303.111601
7974.881075,-740.205942,24278.754898,-72625.853210
7974.883640,17024.736666,11843.295072,-72779.072310
7974.886205,-444.123565,-6217.729913,-77069.207099
7974.888770,-17616.901420,12879.583391,-79061.055394
7974.891334,-10658.965565,9918.759623,-77835.302597
7974.893899,-888.247130,-18653.189738,-77222.426198
7974.896464,-1776.494261,13767.830521,-74924.139704
7974.899029,3108.864956,26795.455100,-73391.948708
7974.901594,11103.089130,6069.688724,-75230.577904
7974.904159,8438.347739,1332.370696,-76609.549800
7974.906723,-5033.400406,5329.482782,-76609.549800
7974.909288,-16580.613101,-1776.494261,-79214.274493
7974.911853,16284.530724,2368.659014,-74770.920605
7974.914418,4441.235652,1184.329507,-75843.454302
7974.916983,14508.036463,21465.972318,-71400.100414
7974.919547,-8290.306550,5181.441594,-79367.493593
7974.922112,-1480.411884,4293.194464,-77835.302597
7974.924676,2960.823768,9918.759623,-75537.016103
7974.927240,-5033.400406,16136.489536,-76149.892501
7974.929804,3404.947333,10066.800811,-74158.044206
7974.932368,1184.329507,17320.819043,-73698.386908
7974.934932,-3108.864956,8438.347739,-77835.302597
7974.937496,5329.482782,-3997.112087,-77528.864398
7974.940060,1628.453072,5477.523971,-76149.892501
7974.942624,7698.141797,33457.308578,-71400.100414
7974.945188,23686.590144,5625.565159,-73545.167808
7974.947752,8734.430116,-8290.306550,-76456.330700
7974.950316,-1924.535449,22206.178260,-75383.797003
7974.952880,-6217.729913,-7846.182985,-79061.055394
7974.955444,2220.617826,-16876.695478,-78448.178995
7974.958008,-1480.411884,-1776.494261,-77835.302597
7974.960572,14359.995275,23834.631332,-72166.195912
7974.963136,35825.967593,-5181.441594,-72319.415011
7974.965700,15692.365970,-7402.059420,-75077.358804
7974.968264,-5181.441594,29164.114115,-76303.111601
7974.970828,-3997.112087,-4293.194464,-78754.617194
7974.973393,9178.553681,-14952.160028,-75230.577904
7974.975957,2960.823768,-1480.411884,-76915.987999
7974.978521,444.123565,12287.418637,-75843.454302
7974.981085,-2220.617826,4737.318029,-77528.864398
7974.983649,15396.283594,3849.070898,-74924.139704
7974.986213,18653.189738,-1628.453072,-72932.291410
7974.988777,11695.253884,-4145.153275,-74311.263306
7974.991341,-8734.430116,3108.864956,-78141.740796
7974.993905,-740.205942,3552.988522,-78141.740796
7974.996469,12139.377449,-8438.347739,-76915.987999
7974.999033,18061.024985,5181.441594,-75230.577904
7975.001597,12731.542202,4441.235652,-74004.825107
7975.004161,1184.329507,14804.118840,-74311.263306
7975.006725,-2960.823768,16432.571912,-75230.577904
7975.009289,19245.354492,-8882.471304,-75996.673402
7975.011853,25315.043216,-17764.942608,-76456.330700
7975.014417,2220.617826,4441.235652,-76915.987999
7975.016981,-16728.654289,11547.212695,-77375.645298
7975.019545,-4885.359217,8586.388927,-75996.673402
7975.022109,-11399.171507,11399.171507,-76609.549800
7975.024675,-5181.441594,29016.072926,-74924.139704
7975.027238,13175.665768,-2812.782580,-76915.987999
7975.029802,21021.848753,-18505.148550,-76303.111601
7975.032366,4737.318029,23094.425390,-74311.263306
7975.034929,7402.059420,3849.070898,-74004.825107
7975.037493,-2220.617826,-148.041188,-76303.111601
7975.040057,888.247130,444.123565,-76609.549800
7975.042621,-16728.654289,16580.613101,-76762.768900
7975.045184,-13915.871710,11399.171507,-77988.521696
7975.047748,11843.295072,5625.565159,-74924.139704
7975.050312,11695.253884,12287.418637,-75843.454302
7975.052875,-1480.411884,12879.583391,-78141.740796
7975.055439,-4441.235652,18357.107362,-74311.263306
7975.058003,-14211.954086,7402.059420,-78601.398095
7975.060567,7254.018232,-1036.288319,-75383.797003
7975.063130,9030.512492,11843.295072,-74311.263306
7975.065694,-7402.059420,10066.800811,-77375.645298
7975.068258,-4293.194464,13323.706956,-74617.701505
7975.070821,-19689.478057,8882.471304,-76762.768900
7975.073385,-888.247130,13619.789333,-76456.330700
7975.075949,11251.130318,2812.782580,-76915.987999
7975.078512,6069.688724,-5773.606348,-77375.645298
7975.081076,10066.800811,35529.885216,-71400.100414
7975.083640,21021.848753,3849.070898,-73545.167808
7975.086204,6217.729913,-888.247130,-75537.016103
7975.088767,-740.205942,20577.725188,-74924.139704
7975.091331,-888.247130,-11251.130318,-77988.521696
7975.093895,4145.153275,-10955.047942,-77682.083497
7975.096458,-1480.411884,-5181.441594,-78141.740796
7975.099022,12287.418637,18949.272115,-73851.606007
7975.101586,28719.990550,-9474.636058,-73085.510509
7975.104149,20577.725188,-12583.501014,-75383.797003
7975.106713,7105.977043,10214.842000,-75230.577904
7975.109277,0.000000,7105.977043,-77222.426198
7975.111841,9918.759623,-5329.482782,-75690.235202
7975.114404,4441.235652,-2960.823768,-77069.207099
7975.116968,9326.594869,20429.683999,-72625.853210
7975.119532,12287.418637,11547.212695,-75230.577904
7975.122095,18061.024985,-7698.141797,-75690.235202
7975.124659,-9178.553681,-18209.066173,-79061.055394
7975.127193,3552.988522,14952.160028,-73545.167808
7975.129727,8142.265362,3552.988522,-75230.577904
7975.132262,6365.771101,-10214.842000,-78294.959896
7975.134796,15692.365970,-10066.800811,-76303.111601
7975.137330,6069.688724,2368.659014,-76149.892501
7975.139864,8290.306550,19245.354492,-73851.606007
7975.142398,29164.114115,-15396.283594,-74004.825107
7975.144932,11103.089130,-9918.759623,-75843.454302
7975.147467,-7105.977043,14804.118840,-76149.892501
7975.150001,-4589.276840,7402.059420,-77682.083497
7975.152535,17764.942608,-9770.718434,-76303.111601
7975.155069,6365.771101,5625.565159,-75383.797003
7975.157603,-3997.112087,26055.249158,-73545.167808
7975.160137,2368.659014,-2368.659014,-75690.235202
7975.162672,-11251.130318,-1480.411884,-76762.768900
7975.165206,-16136.489536,23390.507767,-77835.302597
7975.167740,-12287.418637,21910.095883,-76456.330700
7975.170274,-2072.576638,-17468.860231,-77375.645298
7975.172808,-2812.782580,8734.430116,-75996.673402
7975.175342,-888.247130,26351.331535,-74770.920605
7975.177877,11547.212695,5033.400406,-74617.701505
7975.180411,10658.965565,2960.823768,-74924.139704
7975.182945,-7698.141797,-2812.782580,-77835.302597
7975.185479,-14952.160028,3701.029710,-79673.931792
7975.188013,9030.512492,9622.677246,-76149.892501
7975.190548,11251.130318,12139.377449,-72472.634111
7975.193082,-1480.411884,9474.636058,-75996.673402
7975.195616,1036.288319,1332.370696,-75996.673402
7975.198150,3997.112087,4145.153275,-77835.302597
7975.200684,-1036.288319,17468.860231,-76303.111601
7975.203218,-12287.418637,1480.411884,-76762.768900
7975.205753,-20725.766376,9178.553681,-76303.111601
7975.208287,1924.535449,15544.324782,-74004.825107
7975.210821,11399.171507,-1036.288319,-76915.987999
7975.213355,7994.224174,-2368.659014,-78141.740796
7975.215889,10362.883188,33013.185013,-72932.291410
7975.218423,17468.860231,3108.864956,-73545.167808
7975.220958,4145.153275,-2960.823768,-74770.920605
7975.223492,-3552.988522,21169.889941,-75077.358804
7975.226026,-1924.535449,-10362.883188,-79214.274493
7975.228565,5477.523971,-12435.459826,-77375.645298
7975.231105,444.123565,-9030.512492,-79061.055394
7975.233644,3701.029710,28571.949361,-73851.606007
7975.236183,22650.301825,3404.947333,-73085.510509
7975.238722,15840.407159,-10955.047942,-75230.577904
7975.241262,1628.453072,15396.283594,-75383.797003
7975.243801,-3404.947333,3108.864956,-78141.740796
7975.246340,10066.800811,-11251.130318,-76149.892501
7975.248880,5033.400406,3256.906145,-76456.330700
7975.251419,16284.530724,28571.949361,-71246.881314
7975.253958,25907.207970,7846.182985,-73391.948708
7975.256498,19097.313304,5625.565159,-73238.729609
7975.259037,12583.501014,3108.864956,-74004.825107
7975.261576,-11251.130318,-2516.700203,-74464.482406
7975.264115,6809.894666,-5773.606348,-77069.207099
7975.266655,2072.576638,3997.112087,-77988.521696
7975.269194,16580.613101,6217.729913,-74617.701505
7975.271733,11251.130318,592.164754,-76456.330700
7975.274273,-4737.318029,-5921.647536,-77375.645298
7975.276812,-2220.617826,16432.571912,-75230.577904
7975.279351,20133.601622,-3404.947333,-75383.797003
7975.281891,26943.496289,-20429.683999,-75996.673402
7975.284430,148.041188,1628.453072,-77835.302597
7975.286969,-21021.848753,13323.706956,-77682.083497
7975.289509,-6809.894666,7846.182985,-75843.454302
7975.292048,-3552.988522,13767.830521,-78448.178995
7975.294587,-20281.642811,21465.972318,-77375.645298
7975.297126,5477.523971,10066.800811,-75996.673402
7975.299666,21465.972318,-24426.796086,-75996.673402
7975.302205,11695.253884,14359.995275,-73851.606007
7975.304744,12287.418637,15396.283594,-73698.386908
7975.307284,0.000000,4737.318029,-76609.549800
7975.309823,-11695.253884,11399.171507,-76456.330700
7975.312362,-10214.842000,25018.960840,-75843.454302
7975.314902,592.164754,5625.565159,-77375.645298
7975.317441,18949.272115,592.164754,-74158.044206
7975.319980,15248.242405,-592.164754,-75690.235202
7975.322520,2516.700203,11695.253884,-76609.549800
7975.325059,-5477.523971,15396.283594,-76456.330700
7975.327598,15248.242405,11547.212695,-71859.757712
7975.330142,15396.283594,5921.647536,-74311.263306
7975.332686,-4885.359217,13915.871710,-78448.178995
7975.335230,-16136.489536,2812.782580,-78448.178995
7975.337773,-26055.249158,11103.089130,-76456.330700
7975.340317,1924.535449,14211.954086,-73851.606007
7975.342861,17024.736666,-2664.741391,-75230.577904
7975.345405,5773.606348,-148.041188,-77682.083497
7975.347949,10362.883188,31532.773129,-73851.606007
7975.350493,21169.889941,-1924.535449,-73545.167808
7975.353036,-148.041188,2220.617826,-75077.358804
7975.355580,-12731.542202,24130.713709,-74770.920605
7975.358124,1480.411884,1480.411884,-77375.645298
7975.360668,5181.441594,-17172.777854,-77682.083497
7975.363212,-2664.741391,-6957.935855,-79673.931792
7975.365756,9178.553681,28423.908173,-73391.948708
7975.368299,31384.731941,1036.288319,-71859.757712
7975.370843,13175.665768,-11843.295072,-75077.358804
7975.373387,-3701.029710,19837.519246,-75843.454302
7975.375931,-5033.400406,-1332.370696,-78754.617194
7975.378475,6365.771101,-12879.583391,-77375.645298
7975.381018,7698.141797,7846.182985,-75843.454302
7975.383562,22058.137072,12731.542202,-72625.853210
7975.386106,8734.430116,-2220.617826,-75383.797003
7975.388650,444.123565,-1332.370696,-75383.797003
7975.391194,8438.347739,-3552.988522,-73851.606007
7975.393738,-148.041188,10807.006753,-77528.864398
7975.396281,3701.029710,3404.947333,-78448.178995
7975.398825,12139.377449,-13471.748144,-78141.740796
7975.401369,10955.047942,3404.947333,-75383.797003
7975.403913,6809.894666,14359.995275,-74158.044206
7975.406457,18357.107362,-17320.819043,-75690.235202
7975.409001,6365.771101,-4145.153275,-75230.577904
7975.411544,-6217.729913,11695.253884,-76609.549800
7975.414088,444.123565,2368.659014,-76915.987999
7975.416632,27239.578666,-8882.471304,-74770.920605
7975.419176,-740.205942,1332.370696,-76303.111601
7975.421720,-2220.617826,27683.702231,-73238.729609
7975.424264,11843.295072,14508.036463,-73391.948708
7975.426807,296.082377,-6069.688724,-76915.987999
7975.429351,-14211.954086,9918.759623,-78448.178995
7975.431898,-10066.800811,9770.718434,-77835.302597
7975.434445,740.205942,-4145.153275,-74924.139704
7975.436992,9622.677246,18209.066173,-74158.044206
7975.439540,16284.530724,16432.571912,-74004.825107
7975.442087,11991.336260,2516.700203,-76456.330700
7975.444634,-6217.729913,18061.024985,-76149.892501
7975.447181,-11843.295072,3701.029710,-76915.987999
7975.449728,-17616.901420,4441.235652,-81359.341888
7975.452275,16284.530724,18949.272115,-73085.510509
7975.454822,1332.370696,19837.519246,-75690.235202
7975.457369,-4145.153275,-2072.576638,-74924.139704
7975.459916,-4293.194464,9178.553681,-76609.549800
7975.462464,-6661.853478,15840.407159,-77069.207099
7975.465011,-740.205942,10510.924376,-76915.987999
7975.467558,-10658.965565,10214.842000,-77222.426198
7975.470105,-3404.947333,10066.800811,-76149.892501
7975.472652,12435.459826,2220.617826,-74464.482406
7975.475199,4145.153275,296.082377,-76149.892501
7975.477746,8586.388927,18801.230927,-75077.358804
7975.480293,12731.542202,-3997.112087,-74617.701505
7975.482840,-5921.647536,13471.748144,-75383.797003
7975.485387,-592.164754,18357.107362,-74617.701505
7975.487935,-740.205942,-11991.336260,-77835.302597
7975.490482,4737.318029,-9178.553681,-77528.864398
7975.493029,0.000000,-148.041188,-78448.178995
7975.495576,12287.418637,6365.771101,-76149.892501
7975.498123,23982.672521,-9326.594869,-73698.386908
7975.500670,2516.700203,4737.318029,-73698.386908
7975.503217,-8882.471304,24722.878463,-75843.454302
7975.505764,1184.329507,-13027.624579,-78601.398095
7975.508311,9178.553681,-3849.070898,-77222.426198
7975.510858,7846.182985,6069.688724,-76456.330700
7975.513406,25907.207970,1776.494261,-74924.139704
7975.515953,6513.812290,1184.329507,-75537.016103
7975.518500,15100.201217,6513.812290,-71553.319513
7975.521047,-148.041188,4293.194464,-76149.892501
7975.523594,-1924.535449,-9622.677246,-78141.740796
7975.526141,2664.741391,3108.864956,-77375.645298
7975.528688,4885.359217,-1036.288319,-77988.521696
7975.531235,19541.436869,1776.494261,-74924.139704
7975.533785,13175.665768,21762.054695,-71859.757712
7975.536335,26499.372724,8290.306550,-73391.948708
7975.538885,16876.695478,-13619.789333,-76149.892501
7975.541435,7105.977043,-2960.823768,-75996.673402
7975.543985,-7105.977043,12879.583391,-77222.426198
7975.546535,0.000000,8438.347739,-77375.645298
7975.549085,-7105.977043,5773.606348,-75843.454302
7975.551635,-5625.565159,26055.249158,-74004.825107
7975.554185,15248.242405,27979.784608,-73545.167808
7975.556735,6217.729913,-7846.182985,-78601.398095
7975.559285,888.247130,-7698.141797,-77682.083497
7975.561835,-2220.617826,18653.189738,-74311.263306
7975.564385,-4293.194464,-17172.777854,-77069.207099
7975.566935,-10362.883188,12139.377449,-76456.330700
7975.569485,-4145.153275,28423.908173,-75690.235202
7975.572035,10807.006753,740.205942,-76456.330700
7975.574585,7254.018232,-740.205942,-75537.016103
7975.577135,-11843.295072,-7994.224174,-72779.072310
7975.579685,18357.107362,2220.617826,-74464.482406
7975.582235,16136.489536,6661.853478,-74311.263306
7975.584785,-888.247130,3404.947333,-74464.482406
7975.587335,-7846.182985,11547.212695,-75383.797003
7975.589885,5773.606348,17912.983796,-74464.482406
7975.592435,2812.782580,5773.606348,-76762.768900
7975.594985,-2812.782580,22946.384202,-76456.330700
7975.597535,5033.400406,2664.741391,-75230.577904
7975.600085,-888.247130,-5477.523971,-75690.235202
7975.602635,-9474.636058,13175.665768,-76456.330700
7975.605185,1628.453072,-296.082377,-77528.864398
7975.607735,-10807.006753,-6365.771101,-77835.302597
7975.610285,-6069.688724,15248.242405,-75383.797003
7975.612835,-13323.706956,20873.807564,-76762.768900
7975.615387,-3701.029710,-22206.178260,-78907.836294
7975.617939,11399.171507,-1924.535449,-76149.892501
7975.620491,12583.501014,1184.329507,-75843.454302
7975.623043,23094.425390,-15692.365970,-77222.426198
7975.625595,-3701.029710,-1776.494261,-78141.740796
7975.628147,-4589.276840,17912.983796,-74617.701505
7975.630699,6365.771101,12435.459826,-74311.263306
7975.633251,11251.130318,-16432.571912,-76762.768900
7975.635803,4145.153275,592.164754,-76915.987999
7975.638354,-4589.276840,-3552.988522,-79367.493593
7975.640906,9474.636058,7698.141797,-72012.976812
7975.643458,3997.112087,-1332.370696,-75843.454302
7975.646010,9622.677246,18505.148550,-73391.948708
7975.648562,-3849.070898,4885.359217,-77222.426198
7975.651114,3552.988522,-13915.871710,-77682.083497
7975.653666,13027.624579,148.041188,-76303.111601
7975.656218,5625.565159,-2664.741391,-77375.645298
7975.658770,11399.171507,3256.906145,-75996.673402
7975.661322,8734.430116,15544.324782,-73698.386908
7975.663874,11547.212695,14211.954086,-74617.701505
7975.666425,24870.919651,-11103.089130,-75537.016103
7975.668977,21762.054695,-16580.613101,-75690.235202
7975.671529,-12287.418637,7846.182985,-78907.836294
7975.674081,-14359.995275,17468.860231,-76303.111601
7975.676633,-15248.242405,19689.478057,-75843.454302
7975.679185,-8882.471304,11547.212695,-76149.892501
7975.681737,-3849.070898,23982.672521,-75996.673402
7975.684289,6217.729913,1776.494261,-77988.521696
7975.686841,17912.983796,-17912.983796,-75996.673402
7975.689393,5625.565159,13619.789333,-74464.482406
7975.691944,-8882.471304,-6661.853478,-76303.111601
7975.694496,-15100.201217,9770.718434,-76303.111601
7975.697048,-7994.224174,22058.137072,-76456.330700
7975.699600,5625.565159,4737.318029,-76149.892501
7975.702152,12583.501014,9326.594869,-74464.482406
7975.704704,21169.889941,12139.377449,-75843.454302
7975.707256,-4737.318029,-7550.100608,-80593.246390
7975.709808,-20577.725188,-148.041188,-80593.246390
7975.712360,-5921.647536,20873.807564,-74311.263306
7975.714912,17320.819043,9178.553681,-70021.128517
7975.717465,8882.471304,3701.029710,-75383.797003
7975.720019,-11547.212695,13027.624579,-79673.931792
7975.722573,-15840.407159,444.123565,-79061.055394
7975.725126,-13175.665768,5921.647536,-76456.330700
7975.727680,-2516.700203,12731.542202,-75230.577904
7975.730234,3552.988522,-2664.741391,-76149.892501
7975.732788,7846.182985,30496.484810,-74464.482406
7975.735341,29016.072926,6661.853478,-73085.510509
7975.737895,19393.395680,-5329.482782,-74770.920605
7975.740449,14656.077652,5773.606348,-74311.263306
7975.743003,12139.377449,7402.059420,-75077.358804
7975.745556,15248.242405,-17764.942608,-76609.549800
7975.748110,5181.441594,-12139.377449,-78294.959896
7975.750664,2812.782580,33457.308578,-75077.358804
7975.753217,16728.654289,4589.276840,-75230.577904
7975.755771,16876.695478,-13175.665768,-74924.139704
7975.758325,-1184.329507,12583.501014,-74924.139704
7975.760879,-9474.636058,3404.947333,-77375.645298
7975.763432,12287.418637,-6513.812290,-75843.454302
7975.765986,-592.164754,-5329.482782,-79061.055394
7975.768540,-5181.441594,17024.736666,-75537.016103
7975.771093,2960.823768,8438.347739,-74464.482406
7975.773647,17616.901420,-3997.112087,-72012.976812
7975.776201,-5625.565159,-4145.153275,-77988.521696
7975.778755,1036.288319,5625.565159,-77988.521696
7975.781308,10658.965565,-3701.029710,-77835.302597
7975.783862,15248.242405,-2664.741391,-76915.987999
7975.786416,6809.894666,11103.089130,-74770.920605
7975.788970,10807.006753,20429.683999,-74311.263306
7975.791523,20281.642811,-9326.594869,-75383.797003
7975.794077,22058.137072,-19245.354492,-74004.825107
7975.796631,-7698.141797,10362.883188,-77988.521696
7975.799184,-11251.130318,7698.141797,-77835.302597
7975.801738,-7698.141797,17024.736666,-75537.016103
7975.804292,-1332.370696,17172.777854,-73698.386908
7975.806846,2072.576638,28571.949361,-74617.701505
7975.809399,5477.523971,2220.617826,-77988.521696
7975.811953,12731.542202,-14508.036463,-75843.454302
7975.814507,2072.576638,12287.418637,-74924.139704
7975.817061,-10658.965565,-8142.265362,-77222.426198
7975.819616,-14508.036463,13767.830521,-76609.549800
7975.822171,1184.329507,23390.507767,-74924.139704
7975.824727,16136.489536,740.205942,-75537.016103
7975.827282,20725.766376,13323.706956,-73238.729609
7975.829838,20281.642811,15248.242405,-73391.948708
7975.832393,10955.047942,-13175.665768,-76303.111601
7975.834949,-10510.924376,-11991.336260,-77988.521696
7975.837504,3997.112087,22946.384202,-70634.004916
7975.840060,8142.265362,24870.919651,-72319.415011
7975.842615,8734.430116,2812.782580,-76149.892501
7975.845171,-7254.018232,15692.365970,-78141.740796
7975.847726,-8438.347739,11991.336260,-78448.178995
7975.850282,5477.523971,-4885.359217,-74464.482406
7975.852837,-3701.029710,2368.659014,-74617.701505
7975.855393,-11991.336260,3108.864956,-79061.055394
7975.857948,-22206.178260,10510.924376,-77988.521696
7975.860504,5921.647536,19541.436869,-74770.920605
7975.863059,23390.507767,-1628.453072,-74770.920605
7975.865615,6513.812290,-20873.807564,-77528.864398
7975.868170,9474.636058,3552.988522,-75690.235202
7975.870726,17172.777854,-740.205942,-74924.139704
7975.873281,23390.507767,-15248.242405,-76149.892501
7975.875837,-8438.347739,15840.407159,-78601.398095
7975.878392,-1184.329507,20429.683999,-75996.673402
7975.880948,17172.777854,4737.318029,-73851.606007
7975.883503,12583.501014,-17912.983796,-75843.454302
7975.886059,-592.164754,2960.823768,-77069.207099
7975.888614,740.205942,9474.636058,-77069.207099
7975.891169,25759.166782,-4589.276840,-74311.263306
7975.893725,7698.141797,0.000000,-75077.358804
7975.896280,6069.688724,25463.084405,-77835.302597
7975.898836,2220.617826,13471.748144,-74004.825107
7975.901391,14656.077652,-6957.935855,-75230.577904
7975.903947,8586.388927,-8882.471304,-77682.083497
7975.906502,7402.059420,6513.812290,-78448.178995
7975.909058,7254.018232,22058.137072,-74770.920605
7975.911613,39971.120868,1628.453072,-72012.976812
7975.914169,23834.631332,-11547.212695,-73545.167808
7975.916724,-3849.070898,6809.894666,-76149.892501
7975.919280,-7402.059420,12139.377449,-76915.987999
7975.921837,17764.942608,-7846.182985,-75690.235202
7975.924394,3997.112087,1480.411884,-77682.083497
7975.926951,-12139.377449,23390.507767,-73391.948708
7975.929508,19837.519246,24278.754898,-71246.881314
7975.932065,-2960.823768,-2812.782580,-76915.987999
7975.934622,-14804.118840,5329.482782,-79520.712692
7975.937179,-3701.029710,13027.624579,-76915.987999
7975.939737,9030.512492,-296.082377,-74004.825107
7975.942294,19393.395680,15840.407159,-72319.415011
7975.944851,10362.883188,7698.141797,-75383.797003
7975.947408,1628.453072,2664.741391,-77375.645298
7975.949965,-5181.441594,23390.507767,-75077.358804
7975.952522,17024.736666,12287.418637,-72779.072310
7975.955079,7994.224174,-4293.194464,-76303.111601
7975.957636,0.000000,23242.466579,-77069.207099
7975.960193,-13767.830521,17616.901420,-71553.319513
7975.962750,6661.853478,14952.160028,-71400.100414
7975.965308,5477.523971,-1332.370696,-75230.577904
7975.967865,-22502.260637,22650.301825,-80133.589091
7975.970422,-14508.036463,16284.530724,-79827.150892
7975.972979,13767.830521,-11843.295072,-75537.016103
7975.975536,6365.771101,-592.164754,-74311.263306
7975.978093,-4293.194464,4737.318029,-76609.549800
7975.980650,-24870.919651,-296.082377,-78754.617194
7975.983207,-7402.059420,24426.796086,-76303.111601
7975.985764,11843.295072,3552.988522,-76303.111601
7975.988321,14359.995275,-10510.924376,-76149.892501
7975.990879,12435.459826,5329.482782,-76149.892501
7975.993436,15100.201217,-444.123565,-74311.263306
7975.995993,25315.043216,-17024.736666,-76303.111601
7975.998550,-7698.141797,10807.006753,-78601.398095
7976.001107,-2220.617826,21317.931130,-75996.673402
7976.003664,17172.777854,7698.141797,-73851.606007
7976.006221,12287.418637,-20873.807564,-76609.549800
7976.008778,-148.041188,6365.771101,-76456.330700
7976.011335,4441.235652,10510.924376,-75690.235202
7976.013892,9770.718434,5329.482782,-76915.987999
7976.016450,10510.924376,3256.906145,-75996.673402
7976.019007,-10066.800811,-740.205942,-78294.959896
7976.021564,296.082377,9178.553681,-75383.797003
7976.024121,4145.153275,-2812.782580,-76915.987999
7976.026679,9918.759623,-8586.388927,-77375.645298
7976.029237,14656.077652,-2960.823768,-76609.549800
7976.031794,-13175.665768,-12879.583391,-80440.027290
7976.034352,-8438.347739,22650.301825,-75383.797003
7976.036910,16728.654289,4737.318029,-73851.606007
7976.039468,26647.413912,-22502.260637,-76609.549800
7976.042025,13619.789333,-5625.565159,-76762.768900
7976.044583,-13027.624579,7698.141797,-77222.426198
7976.047141,-8438.347739,13619.789333,-76149.892501
7976.049699,-4589.276840,25167.002028,-74311.263306
7976.052257,7994.224174,30940.608376,-73851.606007
7976.054814,5033.400406,13471.748144,-75383.797003
7976.057372,19541.436869,-19393.395680,-76149.892501
7976.059930,13323.706956,5921.647536,-74924.139704
7976.062488,-7254.018232,-2072.576638,-77069.207099
7976.065045,-15544.324782,17912.983796,-75996.673402
7976.067603,2516.700203,17912.983796,-75383.797003
7976.070161,10658.965565,-6365.771101,-76303.111601
7976.072719,-10362.883188,-11399.171507,-80440.027290
7976.075277,-22502.260637,-1184.329507,-78907.836294
7976.077834,17024.736666,888.247130,-74924.139704
7976.080392,30496.484810,444.123565,-72472.634111
7976.082950,-1628.453072,9622.677246,-73698.386908
7976.085508,-18653.189738,23242.466579,-73391.948708
7976.088065,-740.205942,27387.619854,-73238.729609
7976.090623,11695.253884,592.164754,-78141.740796
7976.093181,4145.153275,-5625.565159,-79367.493593
7976.095739,-9326.594869,12583.501014,-76303.111601
7976.098297,-5625.565159,3256.906145,-74311.263306
7976.100854,-13619.789333,13767.830521,-76303.111601
7976.103412,6217.729913,23390.507767,-76303.111601
7976.105970,19837.519246,444.123565,-75996.673402
7976.108528,18949.272115,1332.370696,-74617.701505
7976.111085,12879.583391,296.082377,-76149.892501
7976.113643,12731.542202,-17468.860231,-76149.892501
7976.116201,2960.823768,-7402.059420,-76762.768900
7976.118759,4293.194464,28275.866984,-74464.482406
7976.121316,4293.194464,11695.253884,-77375.645298
7976.123874,14211.954086,-5921.647536,-75996.673402
7976.126404,5773.606348,-7105.977043,-75537.016103
7976.128934,-7994.224174,9030.512492,-76303.111601
7976.131463,4441.235652,1480.411884,-75537.016103
7976.133993,6365.771101,-740.205942,-78601.398095
7976.136523,7402.059420,10807.006753,-75537.016103
7976.139053,-7402.059420,4145.153275,-77375.645298
7976.141582,-1332.370696,4441.235652,-76149.892501
7976.144112,15248.242405,-3849.070898,-75690.235202
7976.146642,10658.965565,-14508.036463,-77528.864398
7976.149172,5033.400406,-888.247130,-75230.577904
7976.151701,-1776.494261,-21317.931130,-79061.055394
7976.154231,-2812.782580,15100.201217,-74617.701505
7976.156761,2516.700203,12583.501014,-75077.358804
7976.159290,11547.212695,-13027.624579,-78141.740796
7976.161820,21465.972318,-18209.066173,-75230.577904
7976.164350,-3404.947333,11695.253884,-75537.016103
7976.166880,-6661.853478,19689.478057,-75996.673402
7976.169409,-9030.512492,9622.677246,-76149.892501
7976.171939,-12287.418637,26943.496289,-77222.426198
7976.174469,0.000000,5625.565159,-77835.302597
7976.176999,15100.201217,-14804.118840,-75230.577904
7976.179528,6365.771101,8882.471304,-75077.358804
7976.182058,-6365.771101,-2960.823768,-75996.673402
7976.184588,-9474.636058,19689.478057,-74924.139704
7976.187117,1480.411884,17616.901420,-75690.235202
7976.189647,9918.759623,9918.759623,-74617.701505
7976.192177,24870.919651,19689.478057,-72166.195912
7976.194707,10955.047942,4589.276840,-75537.016103
7976.197236,31236.690752,9178.553681,-71706.538613
7976.199766,-740.205942,6957.935855,-77528.864398
7976.202296,-12435.459826,11843.295072,-75383.797003
7976.204826,-740.205942,9178.553681,-73238.729609
7976.207355,-17764.942608,5921.647536,-77375.645298
7976.209885,-2368.659014,16284.530724,-77069.207099
7976.212415,1628.453072,5181.441594,-81206.122788
7976.214944,2072.576638,-2516.700203,-74924.139704
7976.217474,19985.560434,23242.466579,-69714.690318
7976.220004,17616.901420,-7846.182985,-74004.825107
7976.222534,-2960.823768,16136.489536,-75230.577904
7976.225063,-5773.606348,21169.889941,-77835.302597
7976.227599,-3701.029710,-27091.537477,-79980.369991
7976.230135,1776.494261,-6661.853478,-76915.987999
7976.232671,4293.194464,2368.659014,-75690.235202
7976.235207,21910.095883,-14656.077652,-75383.797003
7976.237743,-592.164754,7105.977043,-78141.740796
7976.240279,3701.029710,19837.519246,-75230.577904
7976.242815,16728.654289,9178.553681,-75383.797003
7976.245351,14804.118840,-15100.201217,-75996.673402
7976.247887,11251.130318,-1628.453072,-74158.044206
7976.250423,17468.860231,12583.501014,-73085.510509
7976.252959,11695.253884,1776.494261,-75690.235202
7976.255495,8438.347739,8290.306550,-74311.263306
7976.258031,5773.606348,-6513.812290,-75996.673402
7976.260567,-148.041188,-2220.617826,-77835.302597
7976.263103,2516.700203,2220.617826,-77375.645298
7976.265639,7994.224174,-9770.718434,-76149.892501
7976.268175,5477.523971,6365.771101,-74924.139704
7976.270711,14508.036463,24870.919651,-74617.701505
7976.273247,22650.301825,-3108.864956,-76303.111601
7976.275783,24130.713709,-17468.860231,-75077.358804
7976.278319,15396.283594,-11695.253884,-76915.987999
7976.280855,-7550.100608,15396.283594,-76456.330700
7976.283391,-1628.453072,10807.006753,-74617.701505
7976.285927,296.082377,19393.395680,-74770.920605
7976.288463,9326.594869,33013.185013,-74158.044206
7976.290999,444.123565,1776.494261,-78448.178995
7976.293535,-2812.782580,-7846.182985,-77682.083497
7976.296071,-6217.729913,10955.047942,-75843.454302
7976.298607,3256.906145,8882.471304,-73545.167808
7976.301143,18505.148550,15248.242405,-73238.729609
7976.303679,8882.471304,4737.318029,-76303.111601
7976.306215,0.000000,13471.748144,-75996.673402
7976.308750,0.000000,26351.331535,-75537.016103
7976.311286,4145.153275,3108.864956,-77682.083497
7976.313822,21021.848753,-5181.441594,-75383.797003
7976.316358,3256.906145,6069.688724,-77528.864398
7976.318894,-12731.542202,15396.283594,-74311.263306
7976.321430,1480.411884,17024.736666,-72932.291410
7976.323966,1628.453072,-5477.523971,-76303.111601
7976.326502,-6957.935855,14063.912898,-77835.302597
7976.329044,-10510.924376,16284.530724,-78907.836294
7976.331586,-6513.812290,-10658.965565,-78907.836294
7976.334127,15100.201217,9030.512492,-72472.634111
7976.336669,11251.130318,148.041188,-72166.195912
7976.339210,-9474.636058,20133.601622,-76456.330700
7976.341752,3997.112087,20873.807564,-75537.016103
7976.344294,5329.482782,-22650.301825,-78141.740796
7976.346835,4145.153275,-7550.100608,-77069.207099
7976.349377,-592.164754,2960.823768,-76456.330700
7976.351919,6957.935855,-15248.242405,-76609.549800
7976.354460,-1036.288319,-2220.617826,-77835.302597
7976.357002,4589.276840,21910.095883,-75077.358804
7976.359544,8586.388927,14804.118840,-76762.768900
7976.362085,17320.819043,-19985.560434,-77375.645298
7976.364627,10066.800811,-4145.153275,-74464.482406
7976.367169,-3552.988522,28275.866984,-75690.235202
7976.369710,33901.432144,21910.095883,-75843.454302
7976.372252,17912.983796,5181.441594,-75383.797003
7976.374793,4145.153275,-29904.320057,-78601.398095
7976.377335,1628.453072,12731.542202,-75996.673402
7976.379877,-888.247130,4737.318029,-77528.864398
7976.382418,25315.043216,592.164754,-75537.016103
7976.384960,43524.109390,-24722.878463,-74004.825107
7976.387502,-2516.700203,5033.400406,-74924.139704
7976.390043,-28571.949361,21169.889941,-76915.987999
7976.392585,-1776.494261,-6661.853478,-77375.645298
7976.395127,24278.754898,-17172.777854,-77222.426198
7976.397668,5773.606348,9918.759623,-75383.797003
7976.400210,-1628.453072,15248.242405,-72779.072310
7976.402751,-17024.736666,1924.535449,-77682.083497
7976.405293,-7994.224174,15544.324782,-75843.454302
7976.407835,-5921.647536,26943.496289,-77069.207099
7976.410376,3108.864956,-1332.370696,-77682.083497
7976.412918,10807.006753,-8734.430116,-74617.701505
7976.415460,-6365.771101,-7402.059420,-77682.083497
7976.418001,-6513.812290,26795.455100,-73238.729609
7976.420543,8586.388927,10510.924376,-74617.701505
7976.423085,888.247130,-9178.553681,-77988.521696
7976.425626,740.205942,444.123565,-76609.549800
7976.428168,-9622.677246,20873.807564,-77375.645298
7976.430685,9918.759623,22058.137072,-75843.454302
7976.433203,4737.318029,-3701.029710,-76762.768900
7976.435720,6809.894666,-592.164754,-72779.072310
7976.438237,-11991.336260,3552.988522,-75383.797003
7976.440755,-16580.613101,21169.889941,-76303.111601
7976.443272,-1332.370696,10214.842000,-78907.836294
7976.445789,8290.306550,-7846.182985,-79061.055394
7976.448307,5033.400406,-3997.112087,-76915.987999
7976.450824,-26055.249158,-2812.782580,-76456.330700
7976.453341,-14211.954086,23686.590144,-74311.263306
7976.455859,6957.935855,13027.624579,-76609.549800
7976.458376,14211.954086,-11103.089130,-77988.521696
7976.460893,20429.683999,4441.235652,-75537.016103
7976.463411,20725.766376,-19541.436869,-75843.454302
7976.465928,14656.077652,-12731.542202,-75996.673402
7976.468445,4293.194464,21910.095883,-74924.139704
7976.470963,4145.153275,15396.283594,-75996.673402
7976.473480,12435.459826,6365.771101,-76303.111601
7976.475997,6957.935855,-16876.695478,-78601.398095
7976.478515,2960.823768,-1036.288319,-77069.207099
7976.481032,-13619.789333,4293.194464,-77835.302597
7976.483549,-1184.329507,-4589.276840,-77835.302597
7976.486067,-3849.070898,-13323.706956,-76762.768900
7976.488584,6809.894666,1776.494261,-74158.044206
7976.491101,4737.318029,11843.295072,-76149.892501
7976.493619,10807.006753,-5033.400406,-77222.426198
7976.496136,13471.748144,-7698.141797,-78754.617194
7976.498653,48557.509795,-7402.059420,-71246.881314
7976.501171,14656.077652,-7550.100608,-74617.701505
7976.503688,-17024.736666,13027.624579,-76456.330700
7976.506205,-4885.359217,5921.647536,-77069.207099
7976.508723,25018.960840,-12287.418637,-76149.892501
7976.511240,3849.070898,1628.453072,-76303.111601
7976.513757,-12287.418637,16136.489536,-74617.701505
7976.516275,-21465.972318,888.247130,-77682.083497
7976.518792,-15396.283594,23538.548956,-77069.207099
7976.521309,4441.235652,15988.448347,-75843.454302
7976.523827,12435.459826,-12879.583391,-77069.207099
7976.526344,9770.718434,0.000000,-75230.577904
7976.528861,-7846.182985,12731.542202,-74924.139704
7976.531388,-7994.224174,25611.125593,-73085.510509
7976.533915,5033.400406,26203.290347,-73545.167808
7976.536442,12139.377449,11991.336260,-74617.701505
7976.538969,9918.759623,2812.782580,-77682.083497
7976.541495,4441.235652,18653.189738,-75843.454302
7976.544022,2812.782580,6513.812290,-77835.302597
7976.546549,-3404.947333,3997.112087,-76303.111601
7976.549076,8438.347739,16876.695478,-70021.128517
7976.551603,-1332.370696,5329.482782,-72625.853210
7976.554129,-8438.347739,12731.542202,-76303.111601
7976.556656,-7846.182985,17912.983796,-79827.150892
7976.559183,-8734.430116,-4293.194464,-81512.560987
7976.561710,17024.736666,26943.496289,-70327.566716
7976.564237,19393.395680,-2368.659014,-73238.729609
7976.566763,3552.988522,6661.853478,-74158.044206
7976.569290,2664.741391,25018.960840,-75690.235202
7976.571817,2220.617826,-16136.489536,-79673.931792
7976.574344,4885.359217,-13915.871710,-77375.645298
7976.576870,888.247130,1776.494261,-76456.330700
7976.579397,8142.265362,-16284.530724,-76456.330700
7976.581924,-4885.359217,9770.718434,-75996.673402
7976.584451,10214.842000,16432.571912,-74158.044206
7976.586978,15840.407159,4293.194464,-76609.549800
7976.589504,8142.265362,-14656.077652,-78754.617194
7976.592031,13619.789333,8290.306550,-73545.167808
7976.594558,8882.471304,15396.283594,-74311.263306
7976.597085,22206.178260,1628.453072,-72779.072310
7976.599612,16432.571912,-11251.130318,-72779.072310
7976.602138,-7994.224174,7994.224174,-78141.740796
7976.604665,4145.153275,10510.924376,-76915.987999
7976.607192,18061.024985,-13471.748144,-77375.645298
7976.609719,-1924.535449,-17616.901420,-80286.808190
7976.612246,-6365.771101,17616.901420,-74617.701505
7976.614772,12287.418637,4737.318029,-73085.510509
7976.617299,24870.919651,-17024.736666,-75383.797003
7976.619826,19689.478057,9622.677246,-76303.111601
7976.622353,1332.370696,14508.036463,-77222.426198
7976.624879,444.123565,18801.230927,-73851.606007
7976.627406,4145.153275,16136.489536,-72472.634111
7976.629933,7550.100608,25759.166782,-74311.263306
7976.632468,0.000000,7550.100608,-77528.864398
7976.635003,-444.123565,1332.370696,-77222.426198
7976.637538,-6513.812290,6513.812290,-77069.207099
7976.640072,4589.276840,3108.864956,-74464.482406
7976.642607,22058.137072,7254.018232,-71859.757712
7976.645142,1924.535449,-1924.535449,-74770.920605
7976.647677,1628.453072,21169.889941,-72779.072310
7976.650212,17912.983796,24278.754898,-74617.701505
7976.652747,3849.070898,-41155.450375,-79980.369991
7976.655282,32421.020260,-28127.825796,-74311.263306
7976.657816,-13471.748144,17024.736666,-76915.987999
7976.660351,-20873.807564,33457.308578,-72319.415011
7976.662886,13767.830521,3404.947333,-71859.757712
7976.665421,4885.359217,-6365.771101,-77682.083497
7976.667956,-10807.006753,26055.249158,-76915.987999
7976.670491,-15248.242405,6069.688724,-81206.122788
7976.673025,11251.130318,-2368.659014,-77375.645298
7976.675560,15544.324782,-3256.906145,-72319.415011
7976.678095,-8586.388927,21465.972318,-72932.291410
7976.680630,-9918.759623,11991.336260,-76456.330700
7976.683165,4441.235652,-21614.013506,-79214.274493
7976.685700,6513.812290,11695.253884,-77682.083497
7976.688234,17024.736666,9918.759623,-76456.330700
7976.690769,8290.306550,-9326.594869,-75383.797003
7976.693304,-444.123565,4589.276840,-75996.673402
7976.695839,15692.365970,14952.160028,-73698.386908
7976.698374,14508.036463,9326.594869,-76456.330700
7976.700909,8290.306550,-5625.565159,-77682.083497
7976.703444,1036.288319,-2368.659014,-76609.549800
7976.705978,-7105.977043,7994.224174,-77682.083497
7976.708513,7846.182985,-6809.894666,-77069.207099
7976.711048,-2516.700203,-5181.441594,-74158.044206
7976.713583,8142.265362,13619.789333,-72472.634111
7976.716118,10362.883188,4293.194464,-77528.864398
7976.718653,18209.066173,2516.700203,-77988.521696
7976.721187,23686.590144,-32124.937883,-77682.083497
7976.723722,1332.370696,-1776.494261,-73085.510509
7976.726257,-11991.336260,17912.983796,-74617.701505
7976.728792,5033.400406,-1184.329507,-76303.111601
7976.731327,22354.219448,-23390.507767,-77835.302597
7976.733868,-740.205942,13767.830521,-77835.302597
7976.736409,-1332.370696,19541.436869,-74158.044206
7976.738951,1184.329507,11103.089130,-72932.291410
7976.741492,6661.853478,30348.443622,-73851.606007
7976.744033,-888.247130,3849.070898,-78294.959896
7976.746574,1036.288319,-888.247130,-76762.768900
7976.749116,-2664.741391,8882.471304,-77069.207099
7976.751657,4737.318029,13471.748144,-74770.920605
7976.754198,15988.448347,20873.807564,-71859.757712
7976.756739,11695.253884,-5033.400406,-75230.577904
7976.759281,-11251.130318,-11103.089130,-78601.398095
7976.761822,-19689.478057,4145.153275,-78754.617194
7976.764363,-20577.725188,-11695.253884,-82278.656485
7976.766904,17764.942608,13915.871710,-73851.606007
7976.769446,5181.441594,6957.935855,-74617.701505
7976.771987,-26647.413912,16580.613101,-75996.673402
7976.774528,-1924.535449,19393.395680,-71706.538613
7976.777069,7846.182985,148.041188,-75537.016103
7976.779611,-148.041188,2960.823768,-78601.398095
7976.782152,-4145.153275,9770.718434,-82125.437386
7976.784693,-25907.207970,23686.590144,-77528.864398
7976.787234,13471.748144,10955.047942,-71246.881314
7976.789776,17320.819043,-1036.288319,-72932.291410
7976.792317,14508.036463,10510.924376,-74924.139704
7976.794858,17024.736666,-1332.370696,-77528.864398
7976.797400,13619.789333,-21169.889941,-77682.083497
7976.799941,-1776.494261,-5477.523971,-77988.521696
7976.802482,-1628.453072,-444.123565,-76456.330700
7976.805023,-2220.617826,-11547.212695,-75843.454302
7976.807565,-1776.494261,15248.242405,-75077.358804
7976.810106,2664.741391,19689.478057,-76456.330700
7976.812647,14804.118840,-7550.100608,-78294.959896
7976.815188,18949.272115,5921.647536,-74464.482406
7976.817730,17616.901420,-9178.553681,-74464.482406
7976.820271,15396.283594,13767.830521,-69714.690318
7976.822812,-5181.441594,13471.748144,-75996.673402
7976.825353,8290.306550,-11843.295072,-77375.645298
7976.827895,10658.965565,5329.482782,-77988.521696
7976.830436,-5329.482782,-8586.388927,-81206.122788
7976.832977,4441.235652,11399.171507,-75690.235202
7976.835524,25611.125593,1036.288319,-72319.415011
7976.838071,27831.743419,-14952.160028,-72932.291410
7976.840618,13619.789333,18061.024985,-73085.510509
7976.843165,7254.018232,3997.112087,-77069.207099
7976.845712,-1332.370696,-1924.535449,-78754.617194
7976.848258,7550.100608,20281.642811,-71706.538613
7976.850805,11695.253884,23242.466579,-72625.853210
7976.853352,-13619.789333,3701.029710,-77988.521696
7976.855899,-15396.283594,4293.194464,-79061.055394
7976.858446,-3404.947333,12287.418637,-77682.083497
7976.860993,9770.718434,-3701.029710,-75843.454302
7976.863540,592.164754,-2368.659014,-76149.892501
7976.866087,-14656.077652,14508.036463,-75383.797003
7976.868633,-9326.594869,9622.677246,-76762.768900
7976.871180,9770.718434,-2960.823768,-75230.577904
7976.873727,1036.288319,14063.912898,-77069.207099
7976.876274,5625.565159,19985.560434,-78601.398095
7976.878821,-592.164754,4885.359217,-77069.207099
7976.881368,-14508.036463,1332.370696,-74311.263306
7976.883915,-3404.947333,26795.455100,-70327.566716
7976.886462,1332.370696,8142.265362,-74311.263306
7976.889008,-148.041188,888.247130,-81206.122788
7976.891555,-5625.565159,-148.041188,-81052.903688
7976.894102,-4885.359217,27387.619854,-75843.454302
7976.896649,17024.736666,11103.089130,-71553.319513
7976.899196,13915.871710,-6513.812290,-72779.072310
7976.901743,3404.947333,16432.571912,-74311.263306
7976.904290,5921.647536,-3849.070898,-77988.521696
7976.906837,15396.283594,-18949.272115,-77988.521696
7976.909383,-148.041188,-1924.535449,-78141.740796
7976.911930,296.082377,2812.782580,-75537.016103
7976.914477,-4885.359217,-5921.647536,-74617.701505
7976.917024,-5921.647536,11399.171507,-75537.016103
7976.919571,-1332.370696,15396.283594,-78448.178995
7976.922118,9030.512492,-19097.313304,-81052.903688
7976.924665,-16284.530724,-15396.283594,-81052.903688
7976.927212,-9474.636058,-4885.359217,-76609.549800
7976.929759,1628.453072,-11399.171507,-74004.825107
7976.932305,2220.617826,5181.441594,-74158.044206
7976.934852,1184.329507,4885.359217,-77069.207099
7976.937403,8142.265362,4885.359217,-79061.055394
7976.939955,-888.247130,-22502.260637,-82431.875585
7976.942506,2812.782580,-7105.977043,-75537.016103
7976.945057,296.082377,19837.519246,-71859.757712
7976.947608,11399.171507,-1332.370696,-74464.482406
7976.950159,20429.683999,-18357.107362,-76456.330700
7976.952710,-2812.782580,10510.924376,-79061.055394
7976.955261,2072.576638,21021.848753,-76456.330700
7976.957813,8586.388927,17616.901420,-71859.757712
7976.960364,9918.759623,22650.301825,-72779.072310
7976.962915,-10214.842000,5181.441594,-77528.864398
7976.965466,-6809.894666,1924.535449,-77835.302597
7976.968017,2368.659014,10807.006753,-77222.426198
7976.970568,7994.224174,0.000000,-75230.577904
7976.973120,-2516.700203,740.205942,-77069.207099
7976.975671,-5033.400406,2664.741391,-74770.920605
7976.978222,-29904.320057,8586.388927,-77222.426198
7976.980773,-8438.347739,22798.343014,-77222.426198
7976.983324,11103.089130,2368.659014,-78141.740796
7976.985875,-2220.617826,12879.583391,-81818.999186
7976.988426,10214.842000,21910.095883,-71553.319513
7976.990978,7698.141797,-3108.864956,-71400.100414
7976.993529,-8438.347739,19097.313304,-73238.729609
7976.996080,-8438.347739,17616.901420,-75383.797003
7976.998631,-11103.089130,296.082377,-81052.903688
7977.001182,6069.688724,-9474.636058,-81206.122788
7977.003733,-15100.201217,-2960.823768,-77988.521696
7977.006285,-13471.748144,20133.601622,-73698.386908
7977.008836,-14063.912898,15248.242405,-74158.044206
7977.011387,-5181.441594,-17616.901420,-78754.617194
7977.013938,16580.613101,1184.329507,-77375.645298
7977.016489,25611.125593,-6513.812290,-77069.207099
7977.019040,25018.960840,-8734.430116,-74924.139704
7977.021591,21317.931130,22946.384202,-71246.881314
7977.024143,13175.665768,4441.235652,-73085.510509
7977.026694,1776.494261,5181.441594,-76915.987999
7977.029245,-4441.235652,16136.489536,-77682.083497
7977.031796,-5773.606348,-2072.576638,-80593.246390
7977.034347,8438.347739,0.000000,-77069.207099
7977.036898,21021.848753,-9770.718434,-74770.920605
7977.039455,-3256.906145,8734.430116,-75230.577904
7977.042010,1184.329507,-8438.347739,-76609.549800
7977.044565,7846.182985,6069.688724,-79061.055394
7977.047120,2960.823768,-4737.318029,-80286.808190
7977.049675,11695.253884,9474.636058,-76915.987999
7977.052230,20577.725188,-740.205942,-73391.948708
7977.054785,26795.455100,-15988.448347,-71706.538613
7977.057341,15100.201217,17468.860231,-71246.881314
7977.059896,9030.512492,6217.729913,-77222.426198
7977.062451,-7254.018232,-148.041188,-81206.122788
7977.065006,-11103.089130,16284.530724,-77222.426198
7977.067561,-4589.276840,2960.823768,-75077.358804
7977.070116,-9030.512492,0.000000,-77222.426198
7977.072671,-14211.954086,4885.359217,-78294.959896
7977.075227,1776.494261,13323.706956,-76609.549800
7977.077782,9326.594869,1628.453072,-76149.892501
7977.080337,3404.947333,10510.924376,-75230.577904
7977.082892,296.082377,21614.013506,-73545.167808
7977.085447,-5329.482782,-12731.542202,-77835.302597
7977.088002,-13471.748144,-7402.059420,-77682.083497
7977.090558,-19393.395680,4293.194464,-79520.712692
7977.093113,9622.677246,3552.988522,-77069.207099
7977.095668,17172.777854,22206.178260,-74311.263306
7977.098223,444.123565,8290.306550,-74617.701505
7977.100778,1776.494261,1480.411884,-70634.004916
7977.103333,1480.411884,4737.318029,-73391.948708
7977.105888,-9918.759623,15988.448347,-78448.178995
7977.108444,2516.700203,-5033.400406,-80746.465489
7977.110999,-9474.636058,-10807.006753,-80286.808190
7977.113554,-11103.089130,23982.672521,-73085.510509
7977.116109,-4885.359217,12879.583391,-73545.167808
7977.118664,6365.771101,-13767.830521,-76149.892501
7977.121219,23686.590144,5033.400406,-76149.892501
7977.123774,28423.908173,-11991.336260,-77222.426198
7977.126330,20133.601622,-11991.336260,-75996.673402
7977.128885,19541.436869,16876.695478,-71859.757712
7977.131440,8586.388927,-2368.659014,-73698.386908
7977.133995,7402.059420,2072.576638,-75996.673402
7977.136550,-2960.823768,5477.523971,-78601.398095
7977.139105,10955.047942,-9770.718434,-78294.959896
7977.141663,13027.624579,-5033.400406,-75843.454302
7977.144221,148.041188,-10955.047942,-77375.645298
7977.146779,3997.112087,2368.659014,-70634.004916
7977.149337,-3997.112087,9918.759623,-74004.825107
7977.151895,7105.977043,5181.441594,-77988.521696
7977.154453,6365.771101,-30348.443622,-82585.094684
7977.157011,-11695.253884,3256.906145,-81359.341888
7977.159569,6809.894666,15544.324782,-72779.072310
7977.162127,33901.432144,-20873.807564,-70940.443115
7977.164685,21169.889941,-21317.931130,-75537.016103
7977.167243,9622.677246,10066.800811,-76915.987999
7977.169800,5625.565159,18061.024985,-76609.549800
7977.172358,6365.771101,18209.066173,-74004.825107
7977.174916,12583.501014,21465.972318,-73085.510509
7977.177474,-11399.171507,1628.453072,-77528.864398
7977.180032,-16284.530724,1184.329507,-77835.302597
7977.182590,-888.247130,10955.047942,-76456.330700
7977.185148,5329.482782,3997.112087,-77069.207099
7977.187706,4145.153275,16284.530724,-74464.482406
7977.190264,3108.864956,29312.155303,-72625.853210
7977.192822,21910.095883,16580.613101,-71093.662214
7977.195380,16876.695478,-296.082377,-75843.454302
7977.197938,25759.166782,-2072.576638,-74311.263306
7977.200496,23686.590144,3552.988522,-77222.426198
7977.203053,-7846.182985,2220.617826,-76915.987999
7977.205611,-19837.519246,20577.725188,-73391.948708
7977.208169,-4145.153275,16284.530724,-72012.976812
7977.210727,8142.265362,-5181.441594,-75230.577904
7977.213285,-7698.141797,9326.594869,-79980.369991
7977.215843,-2960.823768,34345.555709,-78141.740796
7977.218401,29164.114115,-9918.759623,-75537.016103
7977.220959,12139.377449,4441.235652,-72472.634111
7977.223519,-10807.006753,23834.631332,-74464.482406
7977.226080,-10362.883188,-12583.501014,-77682.083497
7977.228641,14063.912898,-28719.990550,-78601.398095
7977.231201,6069.688724,-5625.565159,-78907.836294
7977.233762,-6365.771101,-3552.988522,-78754.617194
7977.236322,-24426.796086,6365.771101,-78141.740796
7977.238883,-2368.659014,15396.283594,-74158.044206
7977.241444,10658.965565,1332.370696,-74924.139704
7977.244004,5181.441594,-8438.347739,-79980.369991
7977.246565,5773.606348,-12435.459826,-77375.645298
7977.249125,-444.123565,-7105.977043,-77222.426198
7977.251686,11251.130318,5921.647536,-72779.072310
7977.254247,-2516.700203,8142.265362,-72779.072310
7977.256807,888.247130,3404.947333,-76456.330700
7977.259368,9474.636058,13915.871710,-77069.207099
7977.261928,-2368.659014,10510.924376,-81512.560987
7977.264489,24278.754898,1628.453072,-75690.235202
7977.267050,32421.020260,-20577.725188,-71093.662214
7977.269610,14952.160028,17024.736666,-71093.662214
7977.272171,13471.748144,10955.047942,-74464.482406
7977.274731,1480.411884,-10214.842000,-80746.465489
7977.277292,-17912.983796,10658.965565,-79827.150892
7977.279853,-24722.878463,8882.471304,-76762.768900
7977.282413,-28127.825796,13767.830521,-75690.235202
7977.284974,-10658.965565,9918.759623,-77222.426198
7977.287534,6217.729913,148.041188,-77069.207099
7977.290095,13471.748144,4293.194464,-75077.358804
7977.292655,6069.688724,16136.489536,-74004.825107
7977.295216,22946.384202,4441.235652,-72472.634111
7977.297777,-13471.748144,148.041188,-77835.302597
7977.300337,-11695.253884,17320.819043,-75537.016103
7977.302898,-5625.565159,24278.754898,-75690.235202
7977.305458,-11547.212695,2960.823768,-84117.285680
7977.308019,7550.100608,-9918.759623,-76915.987999
7977.310580,-1924.535449,13323.706956,-72625.853210
7977.313140,-16432.571912,27239.578666,-72625.853210
7977.315701,6217.729913,-888.247130,-72779.072310
7977.318261,-5033.400406,-3108.864956,-80133.589091
7977.320822,-1332.370696,19393.395680,-79214.274493
7977.323383,11843.295072,-10807.006753,-76609.549800
7977.325945,3108.864956,-4737.318029,-75843.454302
7977.328507,888.247130,16136.489536,-72472.634111
7977.331069,-3256.906145,0.000000,-76456.330700
7977.333631,5329.482782,-15692.365970,-77835.302597
7977.336192,15100.201217,-6957.935855,-76915.987999
7977.338754,14211.954086,-1332.370696,-76456.330700
7977.341316,-740.205942,24278.754898,-75077.358804
7977.343878,3256.906145,7846.182985,-74770.920605
7977.346440,296.082377,-5033.400406,-77222.426198
7977.349002,5033.400406,6365.771101,-75843.454302
7977.351564,13323.706956,12731.542202,-75230.577904
7977.354126,14508.036463,-7846.182985,-75843.454302
7977.356688,148.041188,-13619.789333,-71246.881314
7977.359250,-1184.329507,13619.789333,-73851.606007
7977.361812,-3256.906145,3701.029710,-77375.645298
7977.364374,-1036.288319,-14359.995275,-82278.656485
7977.366936,-1036.288319,-3256.906145,-81359.341888
7977.369498,13915.871710,9622.677246,-74770.920605
7977.372060,29756.278868,-11103.089130,-71553.319513
7977.374622,25315.043216,1628.453072,-70021.128517
7977.377184,13767.830521,12435.459826,-74158.044206
7977.379746,-2516.700203,4293.194464,-79061.055394
7977.382308,-8882.471304,15100.201217,-78754.617194
7977.384870,-7402.059420,888.247130,-76609.549800
7977.387432,-25611.125593,-3701.029710,-77069.207099
7977.389994,-22650.301825,8586.388927,-77682.083497
7977.392556,-1924.535449,9770.718434,-76915.987999
7977.395118,4737.318029,444.123565,-76915.987999
7977.397680,7846.182985,14656.077652,-74770.920605
7977.400242,18357.107362,11251.130318,-71553.319513
7977.402804,25167.002028,18653.189738,-70787.224015
7977.405366,3108.864956,11695.253884,-76303.111601
7977.407928,12139.377449,5329.482782,-74770.920605
7977.410490,24426.796086,15544.324782,-73085.510509
7977.413052,3997.112087,11695.253884,-78141.740796
7977.415614,-5625.565159,10510.924376,-73545.167808
7977.418176,-14359.995275,13471.748144,-73085.510509
7977.420738,-8142.265362,9030.512492,-72472.634111
7977.423300,-10955.047942,-6365.771101,-81818.999186
7977.425862,-28127.825796,11843.295072,-82891.532884
7977.428425,7105.977043,24870.919651,-73851.606007
7977.430988,20873.807564,-3256.906145,-73698.386908
7977.433552,17912.983796,5329.482782,-72472.634111
7977.436115,18505.148550,-888.247130,-73698.386908
7977.438678,16728.654289,-19097.313304,-77222.426198
7977.441242,5773.606348,-7698.141797,-78448.178995
7977.443805,-6513.812290,-9770.718434,-79673.931792
7977.446368,-29016.072926,2812.782580,-79980.369991
7977.448932,-10066.800811,16580.613101,-75843.454302
7977.451495,10214.842000,888.247130,-75690.235202
7977.454059,18505.148550,11251.130318,-75690.235202
7977.456622,29312.155303,-7402.059420,-76915.987999
7977.459185,1480.411884,-38786.791361,-78754.617194
7977.461749,16136.489536,6365.771101,-68642.156621
7977.464312,-2812.782580,20577.725188,-73085.510509
7977.466875,19985.560434,11251.130318,-74158.044206
7977.469439,47817.303853,-1628.453072,-75537.016103
7977.472002,8586.388927,-19393.395680,-81359.341888
7977.474565,-8438.347739,1924.535449,-76303.111601
7977.477129,-3849.070898,9474.636058,-72625.853210
7977.479692,12435.459826,-21910.095883,-75996.673402
7977.482256,-148.041188,12879.583391,-75996.673402
7977.484819,-3108.864956,22946.384202,-81512.560987
7977.487382,-28571.949361,6069.688724,-80286.808190
7977.489946,-7105.977043,17912.983796,-75690.235202
7977.492509,9178.553681,11695.253884,-74617.701505
7977.495072,12583.501014,-5181.441594,-74770.920605
7977.497636,17320.819043,-444.123565,-74464.482406
7977.500199,296.082377,6661.853478,-74770.920605
7977.502762,5329.482782,29016.072926,-73085.510509
7977.505326,27535.661042,32124.937883,-72166.195912
7977.507889,22354.219448,-4293.194464,-75537.016103
7977.510453,5181.441594,-296.082377,-75537.016103
7977.513016,12583.501014,30200.402434,-73238.729609
7977.515579,16876.695478,9622.677246,-77069.207099
7977.518143,-1036.288319,3701.029710,-76303.111601
7977.520706,-9030.512492,13915.871710,-73391.948708
7977.523269,-8734.430116,16136.489536,-73085.510509
7977.525833,-2960.823768,0.000000,-77069.207099
7977.528396,6661.853478,25759.166782,-77222.426198
7977.530961,22946.384202,2220.617826,-76915.987999
7977.533525,5625.565159,2220.617826,-74464.482406
7977.536090,-2664.741391,18505.148550,-73085.510509
7977.538655,-2812.782580,-6661.853478,-75996.673402
7977.541219,11399.171507,-14211.954086,-76762.768900
7977.543784,9178.553681,-1480.411884,-77682.083497
7977.546349,17024.736666,-4737.318029,-75690.235202
7977.548913,6809.894666,21169.889941,-74311.263306
7977.551478,-9918.759623,19837.519246,-77528.864398
7977.554043,8734.430116,9770.718434,-76149.892501
7977.556607,-3108.864956,-12583.501014,-79980.369991
7977.559172,-13175.665768,1480.411884,-78448.178995
7977.561737,19837.519246,21317.931130,-71859.757712
7977.564301,22946.384202,-6513.812290,-72779.072310
7977.566866,5773.606348,-7994.224174,-74311.263306
7977.569431,-6069.688724,23538.548956,-77222.426198
7977.571995,27239.578666,4293.194464,-76762.768900
7977.574560,37454.420665,-16580.613101,-77375.645298
7977.577125,4885.359217,-2220.617826,-76762.768900
7977.579689,-14211.954086,15248.242405,-73851.606007
7977.582254,14656.077652,-5181.441594,-72472.634111
7977.584819,-8438.347739,2664.741391,-77375.645298
7977.587383,-14952.160028,18949.272115,-80286.808190
7977.589948,-23538.548956,7402.059420,-80133.589091
7977.592513,-13767.830521,16580.613101,-75996.673402
7977.595078,592.164754,1776.494261,-75537.016103
7977.597642,7698.141797,-2960.823768,-75690.235202
7977.600207,13915.871710,10510.924376,-75077.358804
7977.602772,1036.288319,6365.771101,-74924.139704
7977.605336,9770.718434,18061.024985,-73085.510509
7977.607901,12879.583391,-10066.800811,-77528.864398
7977.610466,-21317.931130,-7994.224174,-79214.274493
7977.613030,7994.224174,-4441.235652,-74311.263306
7977.615595,-8734.430116,13767.830521,-77988.521696
7977.618160,10362.883188,12879.583391,-73851.606007
7977.620724,1184.329507,14508.036463,-75383.797003
7977.623289,-10362.883188,7254.018232,-74770.920605
7977.625854,-10214.842000,9326.594869,-73391.948708
7977.628418,-5921.647536,2368.659014,-77528.864398
7977.630983,-6217.729913,21762.054695,-78601.398095
7977.633548,17468.860231,16284.530724,-76456.330700
7977.636113,18653.189738,-7254.018232,-75230.577904
7977.638678,13767.830521,11103.089130,-72012.976812
7977.641243,4441.235652,-1924.535449,-75077.358804
7977.643808,4885.359217,-18949.272115,-77375.645298
7977.646373,14063.912898,-7994.224174,-76456.330700
7977.648939,-740.205942,-7402.059420,-78448.178995
7977.651504,-26351.331535,-3552.988522,-79214.274493
7977.654069,-1036.288319,22798.343014,-74770.920605
7977.656634,12583.501014,15100.201217,-75230.577904
7977.659199,25167.002028,-5033.400406,-75690.235202
7977.661764,1184.329507,-6069.688724,-78141.740796
7977.664329,2368.659014,6069.688724,-74770.920605
7977.666894,4441.235652,3108.864956,-72779.072310
7977.669459,2664.741391,-4145.153275,-74617.701505
7977.672024,1184.329507,-3404.947333,-78907.836294
7977.674590,148.041188,8734.430116,-79214.274493
7977.677155,4441.235652,7550.100608,-76762.768900
7977.679720,13619.789333,-7994.224174,-74770.920605
7977.682285,23834.631332,-148.041188,-71553.319513
7977.684850,20429.683999,14211.954086,-72625.853210
7977.687415,4589.276840,-3701.029710,-76915.987999
7977.689980,-6217.729913,9326.594869,-77682.083497
7977.692545,-4589.276840,13175.665768,-76609.549800
7977.695110,-27535.661042,8734.430116,-77988.521696
7977.697675,-26647.413912,13619.789333,-78141.740796
7977.700241,-8586.388927,2220.617826,-78294.959896
7977.702806,7254.018232,-740.205942,-77069.207099
7977.705371,-7402.059420,9178.553681,-75077.358804
7977.707936,5329.482782,20281.642811,-71859.757712
7977.710501,592.164754,11843.295072,-76915.987999
7977.713066,7698.141797,7846.182985,-76149.892501
7977.715631,-2368.659014,-3552.988522,-78601.398095
7977.718196,6809.894666,17764.942608,-75996.673402
7977.720761,7105.977043,10658.965565,-74464.482406
7977.723326,-5329.482782,1332.370696,-74311.263306
7977.725892,-8290.306550,21465.972318,-72779.072310
7977.728457,-6069.688724,6069.688724,-75383.797003
7977.731022,7254.018232,9178.553681,-77069.207099
7977.733587,3849.070898,-15396.283594,-79520.712692
7977.736153,-16284.530724,18357.107362,-77682.083497
7977.738718,-7846.182985,20577.725188,-74311.263306
7977.741284,-2516.700203,-10807.006753,-75537.016103
7977.743850,9474.636058,-15100.201217,-76762.768900
7977.746415,8438.347739,2072.576638,-77069.207099
7977.748981,20281.642811,-888.247130,-74770.920605
7977.751547,17172.777854,22502.260637,-72012.976812
7977.754112,1184.329507,1036.288319,-76303.111601
7977.756678,3997.112087,8882.471304,-77528.864398
7977.759244,740.205942,12287.418637,-77528.864398
7977.761809,-444.123565,7402.059420,-78448.178995
7977.764375,33161.226202,12287.418637,-70480.785816
7977.766940,18505.148550,-15544.324782,-74158.044206
7977.769506,-3849.070898,6661.853478,-73698.386908
7977.772072,-5329.482782,19985.560434,-75996.673402
7977.774637,-7994.224174,21762.054695,-80899.684589
7977.777203,27535.661042,3108.864956,-75843.454302
7977.779769,31976.896694,-27979.784608,-75383.797003
7977.782334,14656.077652,11399.171507,-71706.538613
7977.784900,13767.830521,-592.164754,-72625.853210
7977.787466,-11251.130318,8290.306550,-78141.740796
7977.790031,-11251.130318,13915.871710,-78907.836294
7977.792597,-20577.725188,-2368.659014,-79980.369991
7977.795163,-26055.249158,18505.148550,-77375.645298
7977.797728,-7105.977043,13915.871710,-76609.549800
7977.800294,10214.842000,-4145.153275,-75537.016103
7977.802860,13915.871710,-444.123565,-75537.016103
7977.805425,-6957.935855,14359.995275,-73698.386908
7977.807991,740.205942,14804.118840,-72779.072310
7977.810557,19393.395680,5329.482782,-74158.044206
7977.813122,6661.853478,5329.482782,-77528.864398
7977.815688,-21169.889941,-444.123565,-81206.122788
7977.818254,9030.512492,9474.636058,-74004.825107
7977.820819,5477.523971,9622.677246,-75843.454302
7977.823385,-2368.659014,6957.935855,-74617.701505
7977.825951,-10066.800811,14656.077652,-73391.948708
7977.828516,-14656.077652,10066.800811,-76149.892501
7977.831082,10658.965565,11843.295072,-76609.549800
7977.833648,9622.677246,-13915.871710,-79214.274493
7977.836213,-16876.695478,13471.748144,-78754.617194
7977.838779,1628.453072,22058.137072,-72472.634111
7977.841345,-7994.224174,-13175.665768,-76456.330700
7977.843910,6661.853478,-11695.253884,-76456.330700
7977.846476,15248.242405,444.123565,-77528.864398
7977.849041,24426.796086,-1628.453072,-74617.701505
7977.851607,23686.590144,19837.519246,-71093.662214
7977.854172,4145.153275,-7254.018232,-75383.797003
7977.856738,4293.194464,1480.411884,-78754.617194
7977.859304,-6809.894666,-2664.741391,-80593.246390
7977.861869,-1628.453072,-6365.771101,-76456.330700
7977.864435,9030.512492,-6957.935855,-75690.235202
7977.867000,11399.171507,-10066.800811,-72779.072310
7977.869566,2664.741391,-2664.741391,-74158.044206
7977.872131,3997.112087,-14952.160028,-79061.055394
7977.874697,1776.494261,-2072.576638,-79520.712692
7977.877263,14211.954086,6069.688724,-77375.645298
7977.879828,25463.084405,-3997.112087,-74464.482406
7977.882394,19837.519246,1480.411884,-70634.004916
7977.884959,17024.736666,2664.741391,-73238.729609
7977.887525,0.000000,4589.276840,-76456.330700
7977.890091,-7254.018232,14063.912898,-77835.302597
7977.892656,-12287.418637,5181.441594,-77682.083497
7977.895222,-22798.343014,9030.512492,-76915.987999
7977.897787,-20133.601622,20873.807564,-77528.864398
7977.900353,-4589.276840,10658.965565,-76915.987999
7977.902918,8142.265362,-3552.988522,-76609.549800
7977.905484,-1332.370696,12139.377449,-73238.729609
7977.908050,-5625.565159,4441.235652,-76915.987999
7977.910615,4737.318029,-592.164754,-76149.892501
7977.913181,-3701.029710,25315.043216,-76149.892501
7977.915746,-9474.636058,20577.725188,-80440.027290
7977.918312,9770.718434,-4589.276840,-76456.330700
7977.920878,3997.112087,9178.553681,-74617.701505
7977.923443,-11695.253884,17912.983796,-73238.729609
7977.926009,-2072.576638,16580.613101,-72166.195912
7977.928574,4737.318029,-2368.659014,-77069.207099
7977.931140,296.082377,30644.525999,-76915.987999
7977.933705,1480.411884,18653.189738,-77222.426198
7977.936271,5181.441594,-4885.359217,-76915.987999
7977.938837,14359.995275,2516.700203,-72319.415011
7977.941403,16284.530724,5033.400406,-73698.386908
7977.943969,20281.642811,-16136.489536,-76915.987999
7977.946534,11991.336260,-5921.647536,-77375.645298
7977.949100,1332.370696,3256.906145,-76915.987999
7977.951666,-23538.548956,16284.530724,-77835.302597
7977.954232,-3256.906145,11251.130318,-77069.207099
7977.956798,13767.830521,-14211.954086,-78754.617194
7977.959364,1036.288319,-23390.507767,-79520.712692
7977.961930,-6513.812290,-6069.688724,-76456.330700
7977.964496,9030.512492,-6513.812290,-72779.072310
7977.967062,-5329.482782,7254.018232,-72166.195912
7977.969628,-148.041188,16136.489536,-75230.577904
7977.972194,23686.590144,7105.977043,-77375.645298
7977.974760,27091.537477,-4293.194464,-79061.055394
7977.977326,14063.912898,-19541.436869,-77682.083497
7977.979892,6661.853478,14063.912898,-71553.319513
7977.982458,8290.306550,-12435.459826,-73698.386908
7977.985024,5033.400406,6661.853478,-74770.920605
7977.987589,-5181.441594,16580.613101,-76915.987999
7977.990155,-19985.560434,13027.624579,-79673.931792
7977.992721,-7105.977043,34641.638086,-76609.549800
7977.995287,5329.482782,-3108.864956,-76303.111601
7977.997853,7402.059420,-5921.647536,-76149.892501
7978.000419,12287.418637,4885.359217,-76149.892501
7978.002985,-13323.706956,9474.636058,-76915.987999
7978.005551,1776.494261,12139.377449,-72625.853210
7978.008117,33013.185013,3404.947333,-72319.415011
7978.010683,-592.164754,-5625.565159,-78448.178995
7978.013249,-44116.274143,16136.489536,-84117.285680
7978.015815,-5921.647536,14804.118840,-77528.864398
7978.018381,20133.601622,-5773.606348,-73545.167808
7978.020947,2664.741391,13471.748144,-72319.415011
7978.023513,-13471.748144,19689.478057,-72012.976812
7978.026078,-13619.789333,12139.377449,-77528.864398
7978.028644,13323.706956,33309.267390,-73391.948708
7978.031210,24870.919651,-3701.029710,-78754.617194
7978.033776,5625.565159,-6217.729913,-78141.740796
7978.036342,-592.164754,19837.519246,-71859.757712
7978.038908,-888.247130,-9474.636058,-74924.139704
7978.041474,9918.759623,-17320.819043,-77069.207099
7978.044043,4441.235652,6809.894666,-78448.178995
7978.046608,13915.871710,2220.617826,-76303.111601
7978.049174,16876.695478,15692.365970,-71553.319513
7978.051739,-2072.576638,-4293.194464,-76762.768900
7978.054305,4293.194464,9178.553681,-78907.836294
7978.056870,8586.388927,8290.306550,-77528.864398
7978.059436,1924.535449,-7550.100608,-76762.768900
7978.062001,3404.947333,592.164754,-75077.358804
7978.064567,3849.070898,-3108.864956,-74464.482406
7978.067132,9770.718434,9622.677246,-72472.634111
7978.069698,12287.418637,11991.336260,-77528.864398
7978.072263,23834.631332,-3849.070898,-80133.589091
7978.074829,25611.125593,-18653.189738,-76609.549800
7978.077394,-444.123565,6661.853478,-74158.044206
7978.079960,-4293.194464,-5773.606348,-74770.920605
7978.082525,3108.864956,9474.636058,-73698.386908
7978.085091,5625.565159,10955.047942,-76762.768900
7978.087656,-4737.318029,21317.931130,-76915.987999
7978.090222,6957.935855,30792.567187,-74464.482406
7978.092787,-296.082377,9622.677246,-75690.235202
7978.095353,17172.777854,-11251.130318,-74770.920605
7978.097918,21169.889941,11547.212695,-73698.386908
7978.100484,-8438.347739,7698.141797,-74311.263306
7978.103049,444.123565,6513.812290,-72779.072310
7978.105615,-5477.523971,10362.883188,-77835.302597
7978.108180,3849.070898,15840.407159,-78141.740796
7978.110746,10807.006753,5773.606348,-76762.768900
7978.113311,2664.741391,-296.082377,-79214.274493
7978.115877,2664.741391,13175.665768,-73545.167808
7978.118442,-9770.718434,10658.965565,-74770.920605
7978.121008,-11547.212695,10955.047942,-75690.235202
7978.123573,-2664.741391,1924.535449,-75537.016103
7978.126139,-11991.336260,27239.578666,-78601.398095
7978.128704,8586.388927,11251.130318,-78448.178995
7978.131270,12583.501014,-6809.894666,-75996.673402
7978.133835,10658.965565,11547.212695,-72472.634111
7978.136401,7550.100608,-2516.700203,-74158.044206
7978.138966,12435.459826,-20577.725188,-76915.987999
7978.141532,4885.359217,-444.123565,-78448.178995
7978.144097,8586.388927,6809.894666,-75690.235202
7978.146663,-1332.370696,25463.084405,-74464.482406
7978.149228,-9178.553681,-2072.576638,-78601.398095
7978.151794,5477.523971,-15396.283594,-80440.027290
7978.154359,5625.565159,-10362.883188,-79061.055394
7978.156925,1480.411884,-7402.059420,-76609.549800
7978.159491,15544.324782,-1776.494261,-70174.347617
7978.162056,-1776.494261,4293.194464,-73085.510509
7978.164622,-4737.318029,-14804.118840,-79061.055394
7978.167187,0.000000,1184.329507,-80286.808190
7978.169753,12435.459826,11399.171507,-78754.617194
7978.172318,31680.814318,-22354.219448,-74464.482406
7978.174884,25907.207970,1924.535449,-70940.443115
7978.177449,10510.924376,740.205942,-73698.386908
7978.180015,-2516.700203,8142.265362,-74004.825107
7978.182581,-5625.565159,15248.242405,-76915.987999
7978.185146,-27979.784608,2516.700203,-82431.875585
7978.187712,-23834.631332,11991.336260,-77682.083497
7978.190277,-27831.743419,19689.478057,-77988.521696
7978.192843,-6365.771101,-2812.782580,-78294.959896
7978.195408,1628.453072,-4441.235652,-78448.178995
7978.197974,-12139.377449,16136.489536,-74004.825107
7978.200539,12287.418637,18949.272115,-69101.813920
7978.203105,-1036.288319,16580.613101,-77988.521696
7978.205671,2664.741391,-6809.894666,-81512.560987
7978.208236,14063.912898,-8438.347739,-74004.825107
7978.210802,6217.729913,21021.848753,-75383.797003
7978.213367,-4441.235652,12287.418637,-74004.825107
7978.215933,-10658.965565,-2960.823768,-75383.797003
7978.218498,-17024.736666,14359.995275,-76456.330700
7978.221064,5625.565159,2664.741391,-77222.426198
7978.223629,-24870.919651,-5773.606348,-82278.656485
7978.226195,-25611.125593,20725.766376,-78754.617194
7978.228761,0.000000,7698.141797,-75690.235202
7978.231326,10807.006753,-10214.842000,-74311.263306
7978.233892,23538.548956,-296.082377,-73851.606007
7978.236457,27535.661042,-11103.089130,-75537.016103
7978.239023,24130.713709,-11695.253884,-76609.549800
7978.241588,7105.977043,-5477.523971,-76762.768900
7978.244154,-12583.501014,4589.276840,-74464.482406
7978.246719,10658.965565,10362.883188,-75843.454302
7978.249256,21762.054695,-10807.006753,-78601.398095
7978.251792,9178.553681,-14656.077652,-76915.987999
7978.254328,17024.736666,7550.100608,-71246.881314
7978.256865,1628.453072,-1184.329507,-72166.195912
7978.259401,-13767.830521,9918.759623,-75690.235202
7978.261937,15988.448347,25907.207970,-76915.987999
7978.264474,36862.255912,-18209.066173,-78907.836294
7978.267010,22650.301825,-17024.736666,-77528.864398
7978.269546,-3256.906145,15100.201217,-73545.167808
7978.272083,-7698.141797,-10807.006753,-75843.454302
7978.274619,7846.182985,2664.741391,-74004.825107
7978.277155,11695.253884,12287.418637,-75077.358804
7978.279692,-3256.906145,26795.455100,-75537.016103
7978.282228,11251.130318,29460.196492,-74924.139704
7978.284764,5329.482782,740.205942,-76609.549800
7978.287301,17616.901420,-11399.171507,-74311.263306
7978.289837,24722.878463,16432.571912,-72932.291410
7978.292373,-1776.494261,11251.130318,-73698.386908
7978.294910,-6957.935855,-6069.688724,-75230.577904
7978.297446,-2516.700203,444.123565,-77222.426198
7978.299982,888.247130,20873.807564,-77528.864398
7978.302519,3849.070898,5773.606348,-78601.398095
7978.305055,-444.123565,-296.082377,-79980.369991
7978.307591,-4293.194464,14804.118840,-74924.139704
7978.310128,-8142.265362,7994.224174,-72166.195912
7978.312664,-8142.265362,8290.306550,-74617.701505
7978.315200,-148.041188,-9918.759623,-79367.493593
7978.317737,-21614.013506,4885.359217,-81359.341888
7978.320273,-13619.789333,27239.578666,-77682.083497
7978.322809,4293.194464,-3108.864956,-76149.892501
7978.325346,15396.283594,-3701.029710,-73851.606007
7978.327882,19245.354492,-3404.947333,-74004.825107
7978.330418,24278.754898,-9030.512492,-75690.235202
7978.332955,18801.230927,-9770.718434,-76609.549800
7978.335491,3997.112087,2516.700203,-76762.768900
7978.338027,-16284.530724,27831.743419,-74924.139704
7978.340563,4589.276840,7698.141797,-75996.673402
7978.343100,16432.571912,-4293.194464,-77682.083497
7978.345636,-9622.677246,6809.894666,-81818.999186
7978.348172,5921.647536,15248.242405,-72012.976812
7978.350714,-3256.906145,6365.771101,-73238.729609
7978.353256,10214.842000,5181.441594,-71246.881314
7978.355798,17468.860231,8290.306550,-77988.521696
7978.358339,16728.654289,-5773.606348,-82738.313784
7978.360881,23538.548956,-11251.130318,-76149.892501
7978.363423,740.205942,-1036.288319,-75383.797003
7978.365965,-2072.576638,-7402.059420,-76149.892501
7978.368506,7550.100608,12583.501014,-72319.415011
7978.371048,7254.018232,9030.512492,-75537.016103
7978.373590,5033.400406,26351.331535,-75383.797003
7978.376132,22206.178260,28868.031738,-73851.606007
7978.378673,7698.141797,3701.029710,-76915.987999
7978.381215,14508.036463,-5625.565159,-73851.606007
7978.383757,23094.425390,13767.830521,-73391.948708
7978.386299,1184.329507,4145.153275,-74004.825107
7978.388840,2220.617826,19985.560434,-71093.662214
7978.391382,8290.306550,30496.484810,-74464.482406
7978.393924,2516.700203,7550.100608,-79214.274493
7978.396466,-18061.024985,9770.718434,-82278.656485
7978.399007,1184.329507,3552.988522,-79367.493593
7978.401549,1480.411884,4441.235652,-73851.606007
7978.404091,-4145.153275,14063.912898,-71859.757712
7978.406633,-12583.501014,6809.894666,-74311.263306
7978.409174,-8586.388927,1480.411884,-78907.836294
7978.411716,-10658.965565,-6513.812290,-80899.684589
7978.414258,-21762.054695,22502.260637,-79367.493593
7978.416800,-6513.812290,6513.812290,-76609.549800
7978.419341,9030.512492,-11843.295072,-74464.482406
7978.421883,22798.343014,1036.288319,-73851.606007
7978.424425,27091.537477,-9178.553681,-76303.111601
7978.426967,24870.919651,-12435.459826,-76609.549800
7978.429508,6809.894666,-3849.070898,-76915.987999
7978.432050,-12583.501014,19985.560434,-73545.167808
7978.434592,7994.224174,14952.160028,-75537.016103
7978.437134,26943.496289,6217.729913,-76303.111601
7978.439675,26795.455100,-22502.260637,-77682.083497
7978.442217,32569.061448,-9474.636058,-70021.128517
7978.444759,5477.523971,-18949.272115,-71553.319513
7978.447301,-18061.024985,-3997.112087,-77222.426198
7978.449842,-9178.553681,11991.336260,-80899.684589
7978.452389,23834.631332,5329.482782,-79980.369991
7978.454936,39082.873738,-22946.384202,-75996.673402
7978.457482,16728.654289,296.082377,-72012.976812
7978.460029,-5329.482782,1184.329507,-75077.358804
7978.462576,-2960.823768,5329.482782,-73391.948708
7978.465122,2960.823768,14508.036463,-75690.235202
7978.467669,-24574.837274,11251.130318,-80899.684589
7978.470216,-22354.219448,23982.672521,-78601.398095
7978.472762,-18209.066173,25018.960840,-77069.207099
7978.475309,6365.771101,-10362.883188,-76915.987999
7978.477856,8586.388927,-296.082377,-77069.207099
7978.480402,-17764.942608,16432.571912,-74311.263306
7978.482949,10658.965565,18949.272115,-68795.375720
7978.485496,19245.354492,8290.306550,-75843.454302
7978.488043,2220.617826,11251.130318,-79061.055394
7978.490589,-7994.224174,15100.201217,-79980.369991
7978.493136,7105.977043,9326.594869,-75383.797003
7978.495683,9622.677246,-2516.700203,-71553.319513
7978.498229,-12139.377449,15988.448347,-73545.167808
7978.500776,-16876.695478,20725.766376,-75843.454302
7978.503323,10362.883188,15100.201217,-76149.892501
7978.505869,19097.313304,740.205942,-79061.055394
7978.508416,8290.306550,-8882.471304,-77528.864398
7978.510963,-2516.700203,18505.148550,-74158.044206
7978.513509,1184.329507,-11547.212695,-73851.606007
7978.516056,14063.912898,-18801.230927,-76303.111601
7978.518603,9770.718434,3108.864956,-77682.083497
7978.521149,13323.706956,1184.329507,-76149.892501
7978.523696,5921.647536,2960.823768,-74464.482406
7978.526243,-2072.576638,-17172.777854,-76149.892501
7978.528789,18949.272115,20873.807564,-75077.358804
7978.531336,1332.370696,26943.496289,-81052.903688
7978.533883,3701.029710,-23094.425390,-78294.959896
7978.536429,14508.036463,-12287.418637,-70174.347617
7978.538976,1924.535449,-1924.535449,-72779.072310
7978.541523,2664.741391,27387.619854,-75537.016103
7978.544069,14211.954086,-6513.812290,-81052.903688
7978.546616,31976.896694,-18949.272115,-78601.398095
7978.549163,14804.118840,8734.430116,-73238.729609
7978.551709,-6513.812290,-7994.224174,-74617.701505
7978.554260,-5921.647536,8142.265362,-74004.825107
7978.556810,16876.695478,9622.677246,-73238.729609
7978.559360,12731.542202,22502.260637,-74770.920605
7978.561911,18949.272115,25315.043216,-74311.263306
7978.564461,-13027.624579,-10807.006753,-80286.808190
7978.567011,3108.864956,-7994.224174,-75537.016103
7978.569562,24870.919651,15988.448347,-72779.072310
7978.572112,6513.812290,3701.029710,-73698.386908
7978.574662,-6513.812290,-3108.864956,-73545.167808
7978.577212,-13471.748144,11843.295072,-77375.645298
7978.579763,4885.359217,22798.343014,-76609.549800
7978.582313,-14063.912898,11695.253884,-82585.094684
7978.584863,11695.253884,3108.864956,-77375.645298
7978.587414,-148.041188,5033.400406,-73238.729609
7978.589964,-10955.047942,17172.777854,-71553.319513
7978.592514,-7402.059420,6957.935855,-74158.044206
7978.595065,4589.276840,592.164754,-78141.740796
7978.597615,21465.972318,-7550.100608,-79367.493593
7978.600165,-15544.324782,13767.830521,-79520.712692
7978.602716,-20577.725188,17468.860231,-77222.426198
7978.605266,-5625.565159,-23686.590144,-76303.111601
7978.607816,17172.777854,-4293.194464,-74464.482406
7978.610366,19541.436869,3108.864956,-76456.330700
7978.612917,27239.578666,-7550.100608,-75537.016103
7978.615467,16136.489536,-10510.924376,-75077.358804
7978.618017,-4737.318029,6661.853478,-74311.263306
7978.620568,592.164754,8290.306550,-79061.055394
7978.623118,-148.041188,-17468.860231,-82738.313784
7978.625668,21614.013506,1184.329507,-74464.482406
7978.628219,25018.960840,-740.205942,-68182.499322
7978.630769,-2072.576638,-1036.288319,-72932.291410
7978.633319,7698.141797,15396.283594,-75537.016103
7978.635844,27535.661042,-5477.523971,-78601.398095
7978.638368,27683.702231,-18505.148550,-77835.302597
