#time,accel_x,accel_y,accel_z
7843.551056,-296.082377,15840.407159,-74311.263306
7843.553714,-18357.107362,4441.235652,-77069.207099
7843.556372,-444.123565,7402.059420,-78754.617194
7843.559030,9030.512492,9178.553681,-77682.083497
7843.561688,592.164754,-3552.988522,-79980.369991
7843.564346,9178.553681,3256.906145,-75843.454302
7843.567004,19689.478057,15692.365970,-70480.785816
7843.569663,24574.837274,-6661.853478,-71400.100414
7843.572321,-5181.441594,3552.988522,-75996.673402
7843.574979,3997.112087,10658.965565,-80746.465489
7843.577637,-7846.182985,3552.988522,-82125.437386
7843.580295,-8734.430116,5773.606348,-76915.987999
7843.582953,4737.318029,-592.164754,-72166.195912
7843.585611,13175.665768,12139.377449,-70021.128517
7843.588269,10066.800811,2516.700203,-74004.825107
7843.590928,1036.288319,14063.912898,-79980.369991
7843.593586,-10658.965565,21169.889941,-80593.246390
7843.596244,-26647.413912,-8586.388927,-79520.712692
7843.598902,-1776.494261,-2072.576638,-73391.948708
7843.601560,17468.860231,-1036.288319,-74158.044206
7843.604218,6809.894666,4145.153275,-78141.740796
7843.606876,9326.594869,9622.677246,-75537.016103
7843.609534,14359.995275,8882.471304,-71246.881314
7843.612193,1332.370696,4737.318029,-73698.386908
7843.614851,-4589.276840,10807.006753,-78141.740796
7843.617509,11695.253884,5181.441594,-77069.207099
7843.620167,22058.137072,1184.329507,-74770.920605
7843.622825,5477.523971,3256.906145,-76609.549800
7843.625483,10510.924376,14508.036463,-74924.139704
7843.628141,-1036.288319,10214.842000,-75537.016103
7843.630799,-12435.459826,4589.276840,-76303.111601
7843.633322,5329.482782,3849.070898,-76456.330700
7843.635844,7846.182985,9918.759623,-76303.111601
7843.638366,-2368.659014,-2516.700203,-78448.178995
7843.640888,12583.501014,-1184.329507,-74311.263306
7843.643410,24722.878463,3701.029710,-72472.634111
7843.645933,24278.754898,-444.123565,-74617.701505
7843.648455,-1480.411884,20133.601622,-75230.577904
7843.650977,-20133.601622,-1924.535449,-79214.274493
7843.653499,4293.194464,2516.700203,-76609.549800
7843.656022,888.247130,10658.965565,-76609.549800
7843.658544,-14952.160028,-7994.224174,-77069.207099
7843.661066,-1924.535449,-5625.565159,-75996.673402
7843.663588,29312.155303,1036.288319,-74158.044206
7843.666110,16284.530724,13767.830521,-75690.235202
7843.668633,-22798.343014,6661.853478,-78294.959896
7843.671155,-12287.418637,-9030.512492,-77528.864398
7843.673677,7550.100608,-3997.112087,-73698.386908
7843.676199,20429.683999,2368.659014,-74617.701505
7843.678722,-444.123565,1924.535449,-76762.768900
7843.681244,-15396.283594,1628.453072,-77222.426198
7843.683766,3997.112087,1332.370696,-76915.987999
7843.686288,4885.359217,9474.636058,-75537.016103
7843.688810,-12435.459826,-6513.812290,-79214.274493
7843.691333,7402.059420,-9030.512492,-74311.263306
7843.693855,17320.819043,-7402.059420,-73391.948708
7843.696377,13619.789333,6661.853478,-75383.797003
7843.698899,-3552.988522,10510.924376,-79367.493593
7843.701421,-1332.370696,-11103.089130,-75843.454302
7843.703944,-9030.512492,2516.700203,-80746.465489
7843.706466,5773.606348,11251.130318,-76303.111601
7843.708988,-3997.112087,-11991.336260,-76609.549800
7843.711510,1184.329507,-6365.771101,-75230.577904
7843.714033,11251.130318,8882.471304,-75077.358804
7843.716555,148.041188,10807.006753,-75996.673402
7843.719077,-25759.166782,-6217.729913,-78294.959896
7843.721599,-5921.647536,-4293.194464,-76762.768900
7843.724121,28719.990550,7402.059420,-74158.044206
7843.726644,6217.729913,6365.771101,-76303.111601
7843.729166,-14211.954086,-2664.741391,-76456.330700
7843.731688,-740.205942,-14211.954086,-74924.139704
7843.734263,-1036.288319,-1924.535449,-75230.577904
7843.736839,26943.496289,3108.864956,-74464.482406
7843.739414,8734.430116,10214.842000,-76915.987999
7843.741989,-13619.789333,9918.759623,-76915.987999
7843.744564,-15988.448347,-1628.453072,-78141.740796
7843.747139,8290.306550,8586.388927,-76915.987999
7843.749715,444.123565,19097.313304,-75843.454302
7843.752290,-6365.771101,-5477.523971,-76762.768900
7843.754865,29164.114115,5477.523971,-71706.538613
7843.757440,34345.555709,0.000000,-73085.510509
7843.760015,10658.965565,-296.082377,-75996.673402
7843.762591,-8290.306550,12583.501014,-77835.302597
7843.765166,-3552.988522,11103.089130,-76303.111601
7843.767741,-296.082377,17764.942608,-75077.358804
7843.770316,-17616.901420,1480.411884,-79214.274493
7843.772891,-2960.823768,-2664.741391,-76456.330700
7843.775467,31828.855506,6217.729913,-73238.729609
7843.778042,23242.466579,15692.365970,-74770.920605
7843.780617,-3997.112087,3701.029710,-77375.645298
7843.783192,296.082377,6365.771101,-76456.330700
7843.785767,9474.636058,10214.842000,-73085.510509
7843.788342,-8290.306550,14359.995275,-78907.836294
7843.790918,-13767.830521,21317.931130,-78907.836294
7843.793493,-5477.523971,-5329.482782,-78448.178995
7843.796068,-740.205942,10510.924376,-76456.330700
7843.798643,-444.123565,20577.725188,-76303.111601
7843.801218,8290.306550,5921.647536,-71553.319513
7843.803794,4441.235652,740.205942,-76456.330700
7843.806369,11251.130318,14656.077652,-76149.892501
7843.808944,3404.947333,7698.141797,-76915.987999
7843.811519,-1924.535449,296.082377,-78754.617194
7843.814094,10955.047942,7402.059420,-75230.577904
7843.816670,18357.107362,3404.947333,-74924.139704
7843.819245,24130.713709,9622.677246,-74004.825107
7843.821820,1036.288319,9770.718434,-75690.235202
7843.824395,-15840.407159,5181.441594,-77069.207099
7843.826970,2960.823768,9474.636058,-75843.454302
7843.829546,-592.164754,18949.272115,-76303.111601
7843.832121,-6217.729913,-7254.018232,-78448.178995
7843.834696,18801.230927,-1184.329507,-74464.482406
7843.837304,30348.443622,10066.800811,-72932.291410
7843.839912,18061.024985,6069.688724,-74311.263306
7843.842520,-14508.036463,12435.459826,-77682.083497
7843.845128,-22058.137072,-2664.741391,-79061.055394
7843.847736,7846.182985,13027.624579,-75383.797003
7843.850344,-6957.935855,2960.823768,-76915.987999
7843.852952,-8142.265362,-12879.583391,-77069.207099
7843.855560,17616.901420,-2072.576638,-75077.358804
7843.858169,23834.631332,10955.047942,-74770.920605
7843.860777,24426.796086,11695.253884,-73851.606007
7843.863385,-18505.148550,8734.430116,-78141.740796
7843.865993,-11399.171507,-4737.318029,-76456.330700
7843.868601,13323.706956,5921.647536,-74158.044206
7843.871209,-1776.494261,11547.212695,-77222.426198
7843.873817,-20577.725188,-1184.329507,-80593.246390
7843.876425,-740.205942,3552.988522,-76456.330700
7843.879033,18357.107362,3108.864956,-73698.386908
7843.881641,4145.153275,-2220.617826,-74311.263306
7843.884249,-5625.565159,1776.494261,-78294.959896
7843.886857,21169.889941,5477.523971,-73238.729609
7843.889465,18801.230927,11843.295072,-73851.606007
7843.892073,296.082377,-2960.823768,-74770.920605
7843.894681,-5625.565159,13323.706956,-78448.178995
7843.897289,12435.459826,-1184.329507,-74004.825107
7843.899897,10510.924376,-4737.318029,-76915.987999
7843.902505,6661.853478,1184.329507,-76762.768900
7843.905113,-3849.070898,-10066.800811,-77222.426198
7843.907721,-2516.700203,7698.141797,-75077.358804
7843.910329,2368.659014,-1036.288319,-75383.797003
7843.912938,9622.677246,5921.647536,-75077.358804
7843.915546,-9030.512492,9622.677246,-78141.740796
7843.918154,-17616.901420,-9770.718434,-78907.836294
7843.920762,9030.512492,8290.306550,-74924.139704
7843.923370,18357.107362,13027.624579,-74311.263306
7843.925978,16284.530724,15100.201217,-73085.510509
7843.928586,-15248.242405,148.041188,-77835.302597
7843.931194,-8142.265362,-3997.112087,-77988.521696
7843.933802,12879.583391,1036.288319,-75690.235202
7843.936410,16876.695478,3552.988522,-75537.016103
7843.939018,-6069.688724,9178.553681,-76303.111601
7843.941642,-8882.471304,-5477.523971,-77375.645298
7843.944268,26351.331535,11843.295072,-73085.510509
7843.946893,11399.171507,13471.748144,-74617.701505
7843.949518,-13323.706956,1332.370696,-77069.207099
7843.952143,-148.041188,1628.453072,-75843.454302
7843.954768,28719.990550,5625.565159,-74311.263306
7843.957393,20429.683999,5921.647536,-74158.044206
7843.960018,9030.512492,7254.018232,-75077.358804
7843.962643,-2072.576638,13619.789333,-76915.987999
7843.965268,-10807.006753,17468.860231,-77375.645298
7843.967894,-10066.800811,0.000000,-77375.645298
7843.970519,16284.530724,296.082377,-74924.139704
7843.973144,21317.931130,14656.077652,-74004.825107
7843.975769,5181.441594,4441.235652,-76456.330700
7843.978394,6513.812290,17172.777854,-75537.016103
7843.981019,12731.542202,740.205942,-74770.920605
7843.983644,12435.459826,3849.070898,-75077.358804
7843.986269,11991.336260,17616.901420,-73391.948708
7843.988894,1184.329507,-4145.153275,-77528.864398
7843.991520,-5329.482782,-5329.482782,-77222.426198
7843.994145,-6957.935855,-296.082377,-78294.959896
7843.996770,5773.606348,17024.736666,-75077.358804
7843.999395,888.247130,7402.059420,-75077.358804
7844.002020,4441.235652,2664.741391,-76303.111601
7844.004645,15840.407159,10807.006753,-76303.111601
7844.007270,10955.047942,4293.194464,-76609.549800
7844.009895,9918.759623,11991.336260,-74770.920605
7844.012520,-5033.400406,7846.182985,-75996.673402
7844.015146,-3552.988522,3404.947333,-75843.454302
7844.017771,12139.377449,9030.512492,-75077.358804
7844.020396,7105.977043,3256.906145,-77222.426198
7844.023021,14211.954086,13767.830521,-76609.549800
7844.025646,14063.912898,9326.594869,-75077.358804
7844.028271,-3997.112087,11399.171507,-75383.797003
7844.030896,-12731.542202,7698.141797,-77375.645298
7844.033521,-10214.842000,5773.606348,-77835.302597
7844.036146,7402.059420,1628.453072,-76609.549800
7844.038772,18801.230927,11695.253884,-75230.577904
7844.041397,3552.988522,-7994.224174,-76149.892501
7844.044022,6365.771101,-3108.864956,-74617.701505
7844.046657,-1184.329507,6513.812290,-76456.330700
7844.049291,-20725.766376,10955.047942,-78754.617194
7844.051926,-21317.931130,5625.565159,-78907.836294
7844.054561,6513.812290,-2220.617826,-77835.302597
7844.057196,11695.253884,1480.411884,-74311.263306
7844.059831,16580.613101,2368.659014,-74924.139704
7844.062466,2516.700203,-6513.812290,-74924.139704
7844.065101,16284.530724,296.082377,-75230.577904
7844.067735,9918.759623,10214.842000,-76149.892501
7844.070370,-22354.219448,7846.182985,-78754.617194
7844.073005,-14656.077652,-1036.288319,-76149.892501
7844.075640,3701.029710,10658.965565,-77375.645298
7844.078275,7550.100608,27387.619854,-76915.987999
7844.080910,1184.329507,5477.523971,-74617.701505
7844.083544,-8882.471304,-13323.706956,-75077.358804
7844.086179,-1628.453072,-11843.295072,-76456.330700
7844.088814,6217.729913,1184.329507,-74158.044206
7844.091449,13767.830521,11251.130318,-76609.549800
7844.094084,-10510.924376,2516.700203,-78294.959896
7844.096719,-14359.995275,-7254.018232,-77528.864398
7844.099353,7254.018232,-15248.242405,-74464.482406
7844.101988,22206.178260,9474.636058,-71246.881314
7844.104623,2960.823768,10066.800811,-76456.330700
7844.107258,-15988.448347,3552.988522,-78754.617194
7844.109893,-444.123565,1480.411884,-76915.987999
7844.112528,10214.842000,6217.729913,-76762.768900
7844.115162,-19097.313304,13175.665768,-76456.330700
7844.117797,-17320.819043,-8290.306550,-77222.426198
7844.120432,25018.960840,2516.700203,-76762.768900
7844.123067,23834.631332,-5181.441594,-74770.920605
7844.125702,30940.608376,4293.194464,-74617.701505
7844.128337,-6217.729913,8142.265362,-77069.207099
7844.130971,-13619.789333,-8734.430116,-77988.521696
7844.133606,23686.590144,17320.819043,-73545.167808
7844.136241,7994.224174,10362.883188,-74464.482406
7844.138876,-16432.571912,-1480.411884,-76303.111601
7844.141511,6513.812290,1628.453072,-76303.111601
7844.144146,35233.802839,9918.759623,-74158.044206
7844.146780,16580.613101,5477.523971,-75996.673402
7844.149415,-3108.864956,2664.741391,-76149.892501
7844.151961,2664.741391,12435.459826,-75537.016103
7844.154507,2960.823768,1480.411884,-75537.016103
7844.157053,16432.571912,740.205942,-74311.263306
7844.159599,22650.301825,2664.741391,-75690.235202
7844.162145,4737.318029,12583.501014,-75690.235202
7844.164691,-3256.906145,9622.677246,-76456.330700
7844.167237,9326.594869,2664.741391,-73391.948708
7844.169783,5477.523971,-1480.411884,-74770.920605
7844.172329,-4145.153275,-6069.688724,-77222.426198
7844.174875,-2516.700203,7994.224174,-77988.521696
7844.177421,13767.830521,7698.141797,-77835.302597
7844.179967,22650.301825,-3552.988522,-72319.415011
7844.182513,1036.288319,3256.906145,-76762.768900
7844.185058,1776.494261,2664.741391,-76149.892501
7844.187604,14952.160028,12583.501014,-74617.701505
7844.190150,22206.178260,6069.688724,-74770.920605
7844.192696,8142.265362,-3997.112087,-76149.892501
7844.195242,10362.883188,-3849.070898,-76762.768900
7844.197788,23390.507767,8586.388927,-73545.167808
7844.200334,4737.318029,11695.253884,-74311.263306
7844.202880,-4293.194464,2812.782580,-76456.330700
7844.205426,1332.370696,3997.112087,-76456.330700
7844.207972,20725.766376,2960.823768,-76456.330700
7844.210518,15840.407159,6365.771101,-75996.673402
7844.213064,-10955.047942,9030.512492,-75996.673402
7844.215610,-11547.212695,9326.594869,-74617.701505
7844.218156,-7994.224174,14508.036463,-76303.111601
7844.220702,-11695.253884,148.041188,-78754.617194
7844.223248,2072.576638,13027.624579,-76456.330700
7844.225794,-7550.100608,-888.247130,-77528.864398
7844.228339,-2220.617826,-5181.441594,-76149.892501
7844.230885,14952.160028,2368.659014,-74311.263306
7844.233431,7254.018232,10658.965565,-75843.454302
7844.235977,-21910.095883,7550.100608,-79673.931792
7844.238523,-14211.954086,-1036.288319,-77528.864398
7844.241069,15248.242405,4737.318029,-74770.920605
7844.243615,10510.924376,1184.329507,-75077.358804
7844.246161,-2664.741391,-1480.411884,-75230.577904
7844.248707,-6365.771101,14508.036463,-74617.701505
7844.251253,-3849.070898,8586.388927,-77835.302597
7844.253826,-16580.613101,2368.659014,-79214.274493
7844.256399,-1184.329507,3997.112087,-74311.263306
7844.258972,-6957.935855,-3404.947333,-77069.207099
7844.261545,-10362.883188,-15692.365970,-80286.808190
7844.264118,-4441.235652,5625.565159,-76609.549800
7844.266691,-7550.100608,-19541.436869,-78141.740796
7844.269264,4293.194464,1924.535449,-74924.139704
7844.271838,1480.411884,20429.683999,-75537.016103
7844.274411,-3849.070898,-13175.665768,-77682.083497
7844.276984,5773.606348,17024.736666,-77988.521696
7844.279557,-9622.677246,11547.212695,-73698.386908
7844.282130,-17468.860231,9918.759623,-76303.111601
7844.284703,-18357.107362,-7550.100608,-78448.178995
7844.287276,5329.482782,12435.459826,-77069.207099
7844.289849,3997.112087,5477.523971,-76762.768900
7844.292422,6069.688724,-18505.148550,-75996.673402
7844.294995,23094.425390,6365.771101,-71859.757712
7844.297568,8438.347739,4589.276840,-75077.358804
7844.300141,-19097.313304,-3256.906145,-77835.302597
7844.302714,-10214.842000,-5477.523971,-78141.740796
7844.305287,26795.455100,8438.347739,-74311.263306
7844.307861,11251.130318,14063.912898,-75996.673402
7844.310434,-12139.377449,-8290.306550,-78448.178995
7844.313007,19245.354492,7254.018232,-75690.235202
7844.315580,26943.496289,16136.489536,-72625.853210
7844.318153,5773.606348,15544.324782,-75383.797003
7844.320726,-24278.754898,4737.318029,-78601.398095
7844.323299,-3108.864956,296.082377,-77528.864398
7844.325872,33457.308578,9030.512492,-72932.291410
7844.328445,12435.459826,10510.924376,-75077.358804
7844.331018,-8438.347739,5033.400406,-76456.330700
7844.333591,1924.535449,-2812.782580,-75537.016103
7844.336184,25759.166782,2368.659014,-72932.291410
7844.338776,21169.889941,6513.812290,-76303.111601
7844.341369,-6957.935855,12583.501014,-78294.959896
7844.343961,-8438.347739,13323.706956,-76303.111601
7844.346553,3849.070898,3256.906145,-74464.482406
7844.349146,9030.512492,-7402.059420,-75383.797003
7844.351738,2368.659014,-3108.864956,-77682.083497
7844.354331,5477.523971,25167.002028,-78141.740796
7844.356923,15692.365970,6069.688724,-73085.510509
7844.359516,7846.182985,-2072.576638,-76762.768900
7844.362108,10362.883188,3849.070898,-74617.701505
7844.364700,5181.441594,10066.800811,-74464.482406
7844.367293,2072.576638,17616.901420,-76609.549800
7844.369885,2960.823768,17024.736666,-77528.864398
7844.372478,1776.494261,-592.164754,-77375.645298
7844.375070,11547.212695,148.041188,-74311.263306
7844.377663,5033.400406,8734.430116,-73698.386908
7844.380255,9178.553681,9474.636058,-74770.920605
7844.382848,4293.194464,18653.189738,-76456.330700
7844.385440,-7402.059420,444.123565,-79367.493593
7844.388032,5477.523971,-3552.988522,-76303.111601
7844.390625,20725.766376,-888.247130,-73085.510509
7844.393217,22650.301825,1924.535449,-73698.386908
7844.395810,10066.800811,8734.430116,-75383.797003
7844.398402,-7402.059420,-592.164754,-77682.083497
7844.400995,1332.370696,7402.059420,-76149.892501
7844.403587,-13619.789333,5329.482782,-78141.740796
7844.406179,-17320.819043,-3701.029710,-77375.645298
7844.408772,7994.224174,-5033.400406,-75690.235202
7844.411364,21465.972318,1776.494261,-74617.701505
7844.413957,22650.301825,8438.347739,-74311.263306
7844.416549,-8290.306550,5329.482782,-78448.178995
7844.419142,-6217.729913,-2220.617826,-76762.768900
7844.421734,10955.047942,3256.906145,-74464.482406
7844.424326,2516.700203,-2960.823768,-75996.673402
7844.426919,-10066.800811,14656.077652,-77682.083497
7844.429511,-16136.489536,8142.265362,-77682.083497
7844.432104,5625.565159,-8734.430116,-74924.139704
7844.434696,7846.182985,-2960.823768,-76456.330700
7844.437289,-6661.853478,-12879.583391,-79061.055394
7844.439892,-5477.523971,-6809.894666,-77988.521696
7844.442494,30792.567187,-4885.359217,-71400.100414
7844.445097,31532.773129,12435.459826,-68948.594820
7844.447700,-5477.523971,4145.153275,-77375.645298
7844.450303,-13915.871710,8290.306550,-81052.903688
7844.452906,-4441.235652,14656.077652,-76456.330700
7844.455509,-3849.070898,-15692.365970,-74770.920605
7844.458112,6661.853478,-2220.617826,-74617.701505
7844.460715,1628.453072,17024.736666,-77375.645298
7844.463318,-8586.388927,-1036.288319,-78448.178995
7844.465921,-6809.894666,6661.853478,-76762.768900
7844.468524,-8586.388927,-3997.112087,-77988.521696
7844.471127,10510.924376,1036.288319,-73851.606007
7844.473730,17172.777854,3997.112087,-74617.701505
7844.476332,17468.860231,4293.194464,-74924.139704
7844.478935,888.247130,13175.665768,-75996.673402
7844.481538,-15692.365970,-2812.782580,-79061.055394
7844.484141,6365.771101,11251.130318,-76915.987999
7844.486744,5181.441594,21465.972318,-75537.016103
7844.489347,-8734.430116,-7254.018232,-76609.549800
7844.491950,20577.725188,5033.400406,-72932.291410
7844.494553,32272.979071,7550.100608,-73085.510509
7844.497156,7550.100608,5477.523971,-76149.892501
7844.499759,-12583.501014,10658.965565,-78294.959896
7844.502362,-3552.988522,5773.606348,-77528.864398
7844.504965,3701.029710,16728.654289,-75690.235202
7844.507567,1924.535449,13027.624579,-75690.235202
7844.510170,-16284.530724,6513.812290,-78448.178995
7844.512773,-3404.947333,-2812.782580,-77069.207099
7844.515376,33013.185013,-148.041188,-73851.606007
7844.517979,26943.496289,9474.636058,-74311.263306
7844.520582,-1480.411884,1924.535449,-75843.454302
7844.523185,-444.123565,-6217.729913,-75843.454302
7844.525788,26351.331535,22206.178260,-73545.167808
7844.528391,25907.207970,36862.255912,-71246.881314
7844.530994,-17616.901420,-11991.336260,-78754.617194
7844.533597,-6365.771101,-17024.736666,-77988.521696
7844.536200,21169.889941,36270.091158,-75230.577904
7844.538802,1036.288319,19837.519246,-74924.139704
7844.541405,-28719.990550,23834.631332,-80133.589091
7844.544015,-28127.825796,-1776.494261,-80593.246390
7844.546624,37898.544230,-7402.059420,-73698.386908
7844.549234,47077.097911,18357.107362,-71400.100414
7844.551844,-888.247130,-2072.576638,-75996.673402
7844.554453,-9474.636058,3108.864956,-75690.235202
7844.557063,23094.425390,17468.860231,-74464.482406
7844.559672,-148.041188,9622.677246,-78141.740796
7844.562282,-29756.278868,2960.823768,-79214.274493
7844.564891,-1036.288319,444.123565,-75996.673402
7844.567501,28571.949361,5625.565159,-74158.044206
7844.570110,22650.301825,-740.205942,-74004.825107
7844.572720,11103.089130,4145.153275,-75230.577904
7844.575329,1036.288319,-10955.047942,-76762.768900
7844.577939,15692.365970,5625.565159,-74311.263306
7844.580548,2516.700203,9474.636058,-76303.111601
7844.583158,-25907.207970,-1628.453072,-78448.178995
7844.585767,-17764.942608,-1628.453072,-78141.740796
7844.588377,18653.189738,8734.430116,-74004.825107
7844.590986,11251.130318,12287.418637,-76609.549800
7844.593596,-7254.018232,-9326.594869,-77682.083497
7844.596206,10955.047942,-444.123565,-74158.044206
7844.598815,11547.212695,8142.265362,-74770.920605
7844.601425,-16284.530724,10955.047942,-76456.330700
7844.604034,-19985.560434,-4589.276840,-76762.768900
7844.606644,-18209.066173,1776.494261,-78141.740796
7844.609253,2072.576638,8438.347739,-76149.892501
7844.611863,12435.459826,13471.748144,-76609.549800
7844.614472,-4441.235652,-8142.265362,-73851.606007
7844.617082,-23834.631332,-2960.823768,-79520.712692
7844.619691,888.247130,12879.583391,-74770.920605
7844.622301,-8586.388927,-1184.329507,-79367.493593
7844.624910,888.247130,-7846.182985,-77682.083497
7844.627520,9918.759623,1776.494261,-74464.482406
7844.630129,-592.164754,2220.617826,-75690.235202
7844.632739,-9622.677246,-888.247130,-76609.549800
7844.635348,-1776.494261,6661.853478,-75843.454302
7844.637958,16284.530724,-9178.553681,-76915.987999
7844.640568,22798.343014,8586.388927,-74004.825107
7844.643177,-6513.812290,-888.247130,-76762.768900
7844.645787,-13915.871710,-8142.265362,-76762.768900
7844.648400,7254.018232,-1480.411884,-74311.263306
7844.651014,18653.189738,8142.265362,-74311.263306
7844.653627,-1924.535449,7698.141797,-78141.740796
7844.656241,-1332.370696,-4885.359217,-78448.178995
7844.658855,23390.507767,20725.766376,-73238.729609
7844.661468,-3256.906145,8734.430116,-75690.235202
7844.664082,-11843.295072,-5921.647536,-76762.768900
7844.666696,23834.631332,-5033.400406,-73545.167808
7844.669309,23834.631332,8438.347739,-74924.139704
7844.671923,34937.720462,11399.171507,-74770.920605
7844.674537,6069.688724,9622.677246,-75843.454302
7844.677150,-6809.894666,5181.441594,-75230.577904
7844.679764,4589.276840,14804.118840,-74464.482406
7844.682378,-12435.459826,9770.718434,-77528.864398
7844.684991,-8438.347739,-6365.771101,-78141.740796
7844.687605,27535.661042,-3108.864956,-74464.482406
7844.690218,25611.125593,20873.807564,-73698.386908
7844.692832,-17616.901420,19689.478057,-78294.959896
7844.695446,-22946.384202,2220.617826,-79214.274493
7844.698059,1332.370696,10807.006753,-74004.825107
7844.700673,-3404.947333,23538.548956,-77682.083497
7844.703287,148.041188,15396.283594,-75843.454302
7844.705900,-3404.947333,444.123565,-77069.207099
7844.708514,1480.411884,-3404.947333,-76456.330700
7844.711128,31532.773129,21317.931130,-73085.510509
7844.713741,13323.706956,11695.253884,-75077.358804
7844.716355,-15692.365970,-888.247130,-77375.645298
7844.718968,2368.659014,2072.576638,-76915.987999
7844.721582,21762.054695,13767.830521,-74004.825107
7844.724196,740.205942,4293.194464,-75843.454302
7844.726809,8734.430116,-1924.535449,-76609.549800
7844.729423,24426.796086,16728.654289,-72932.291410
7844.732037,-7698.141797,11991.336260,-77222.426198
7844.734650,-27831.743419,5921.647536,-76149.892501
7844.737264,-24426.796086,3997.112087,-79061.055394
7844.739878,-11251.130318,740.205942,-77375.645298
7844.742491,12879.583391,14656.077652,-74617.701505
7844.745105,-5773.606348,-6661.853478,-77528.864398
7844.747718,3997.112087,-9178.553681,-75843.454302
7844.750332,22798.343014,9030.512492,-73698.386908
7844.752946,-6069.688724,14211.954086,-77222.426198
7844.755560,-31384.731941,-3404.947333,-79827.150892
7844.758175,-1480.411884,-888.247130,-75690.235202
7844.760789,18801.230927,14359.995275,-74311.263306
7844.763403,-1480.411884,-3256.906145,-77375.645298
7844.766017,2368.659014,-3701.029710,-75537.016103
7844.768631,12583.501014,2812.782580,-76456.330700
7844.771245,7550.100608,888.247130,-74617.701505
7844.773859,15396.283594,-16136.489536,-73391.948708
7844.776473,35233.802839,-7105.977043,-72625.853210
7844.779088,29312.155303,18061.024985,-71246.881314
7844.781702,3849.070898,12731.542202,-75843.454302
7844.784316,-26943.496289,-3404.947333,-79061.055394
7844.786930,-23982.672521,-19245.354492,-77682.083497
7844.789544,6217.729913,10066.800811,-76915.987999
7844.792158,-1628.453072,14211.954086,-77528.864398
7844.794772,-21910.095883,-11695.253884,-78907.836294
7844.797386,3849.070898,-4885.359217,-76149.892501
7844.800001,14952.160028,14952.160028,-74158.044206
7844.802615,6365.771101,9622.677246,-74770.920605
7844.805229,-6217.729913,-14804.118840,-77222.426198
7844.807843,22354.219448,148.041188,-75690.235202
7844.810457,23390.507767,7402.059420,-74770.920605
7844.813071,-15988.448347,-4885.359217,-76456.330700
7844.815685,-13027.624579,-13027.624579,-76303.111601
7844.818300,24722.878463,16580.613101,-73391.948708
7844.820914,6217.729913,15692.365970,-76762.768900
7844.823528,-13471.748144,-14211.954086,-79980.369991
7844.826142,23094.425390,12435.459826,-73698.386908
7844.828756,14952.160028,15396.283594,-73085.510509
7844.831370,-14804.118840,-3108.864956,-76456.330700
7844.833984,4589.276840,-7105.977043,-78448.178995
7844.836598,11843.295072,5477.523971,-75843.454302
7844.839213,32421.020260,14359.995275,-75383.797003
7844.841827,4885.359217,10066.800811,-76609.549800
7844.844441,-3256.906145,1332.370696,-75383.797003
7844.847055,13471.748144,7846.182985,-74158.044206
7844.849669,2960.823768,-1184.329507,-75996.673402
7844.852283,6809.894666,-1480.411884,-77222.426198
7844.854897,15248.242405,20725.766376,-75690.235202
7844.857511,8586.388927,22946.384202,-75077.358804
7844.860125,-4145.153275,23982.672521,-76149.892501
7844.862738,-6513.812290,21614.013506,-75537.016103
7844.865352,-22058.137072,-14063.912898,-78754.617194
7844.867966,-740.205942,-1776.494261,-74924.139704
7844.870579,18061.024985,-2368.659014,-75230.577904
7844.873193,18209.066173,7402.059420,-74924.139704
7844.875807,7402.059420,-1480.411884,-76609.549800
7844.878420,8290.306550,10066.800811,-75537.016103
7844.881034,6661.853478,11251.130318,-75383.797003
7844.883648,4737.318029,3701.029710,-75996.673402
7844.886261,7994.224174,6809.894666,-75077.358804
7844.888875,9178.553681,-1628.453072,-75230.577904
7844.891489,20429.683999,7402.059420,-75383.797003
7844.894102,12435.459826,14656.077652,-75383.797003
7844.896716,-14952.160028,8438.347739,-77222.426198
7844.899330,-5477.523971,11547.212695,-76915.987999
7844.901943,-21169.889941,3404.947333,-79061.055394
7844.904557,-8734.430116,2516.700203,-77069.207099
7844.907171,8882.471304,10066.800811,-74924.139704
7844.909784,-1924.535449,-5477.523971,-76456.330700
7844.912398,9622.677246,-740.205942,-74770.920605
7844.915012,19393.395680,6365.771101,-75383.797003
7844.917625,-10362.883188,11843.295072,-76456.330700
7844.920239,-30792.567187,-4589.276840,-79673.931792
7844.922853,2664.741391,-296.082377,-76609.549800
7844.925466,19689.478057,11843.295072,-74158.044206
7844.928080,592.164754,-5625.565159,-76609.549800
7844.930694,1628.453072,-2220.617826,-75843.454302
7844.933307,3849.070898,-2368.659014,-75537.016103
7844.935921,9030.512492,-3849.070898,-77375.645298
7844.938535,9178.553681,-2516.700203,-74617.701505
7844.941148,5477.523971,-1628.453072,-74311.263306
7844.943762,5033.400406,3108.864956,-76149.892501
7844.946376,11399.171507,2960.823768,-77835.302597
7844.948989,17024.736666,3108.864956,-70634.004916
7844.951603,-296.082377,-1036.288319,-74770.920605
7844.954217,-11843.295072,2960.823768,-77835.302597
7844.956830,-5033.400406,-444.123565,-78294.959896
7844.959444,9622.677246,-2960.823768,-75843.454302
7844.962056,-1480.411884,4885.359217,-75843.454302
7844.964666,-8438.347739,-1036.288319,-75537.016103
7844.967277,1480.411884,-3256.906145,-75843.454302
7844.969888,15840.407159,11251.130318,-75077.358804
7844.972498,-5033.400406,1036.288319,-77222.426198
7844.975109,-16136.489536,-10362.883188,-77988.521696
7844.977720,13619.789333,1628.453072,-75077.358804
7844.980331,21614.013506,16580.613101,-73545.167808
7844.982941,-13471.748144,-888.247130,-77375.645298
7844.985552,-2220.617826,-444.123565,-78141.740796
7844.988163,18209.066173,31532.773129,-74311.263306
7844.990773,-9178.553681,2368.659014,-77682.083497
7844.993384,-148.041188,-3701.029710,-75230.577904
7844.995995,35085.761651,2664.741391,-72472.634111
7844.998605,40267.203245,7698.141797,-72472.634111
7845.001216,20577.725188,12583.501014,-75690.235202
7845.003827,-11399.171507,6661.853478,-78294.959896
7845.006438,-1480.411884,11399.171507,-75690.235202
7845.009048,5921.647536,10807.006753,-75537.016103
7845.011659,0.000000,15544.324782,-77988.521696
7845.014270,-9474.636058,12435.459826,-76762.768900
7845.016880,-11843.295072,6365.771101,-79520.712692
7845.019491,18357.107362,12583.501014,-74770.920605
7845.022102,10807.006753,30940.608376,-75230.577904
7845.024712,-2072.576638,25018.960840,-76762.768900
7845.027323,-592.164754,25759.166782,-73545.167808
7845.029934,11991.336260,17616.901420,-75077.358804
7845.032545,-3701.029710,-11991.336260,-77375.645298
7845.035155,17764.942608,6365.771101,-75077.358804
7845.037766,19541.436869,26203.290347,-75077.358804
7845.040377,-1924.535449,12731.542202,-75230.577904
7845.042987,-296.082377,-6957.935855,-76915.987999
7845.045598,17024.736666,4293.194464,-75077.358804
7845.048209,8586.388927,6217.729913,-75996.673402
7845.050819,4885.359217,17616.901420,-75843.454302
7845.053430,-4885.359217,12879.583391,-77069.207099
7845.056041,-2220.617826,-1924.535449,-76303.111601
7845.058652,9474.636058,-3552.988522,-75383.797003
7845.061262,24722.878463,4885.359217,-74158.044206
7845.063873,22946.384202,3552.988522,-74158.044206
7845.066481,11991.336260,5625.565159,-74770.920605
7845.069089,8882.471304,-10214.842000,-76456.330700
7845.071697,1628.453072,5773.606348,-75077.358804
7845.074305,-17912.983796,3404.947333,-77988.521696
7845.076913,-14804.118840,-6661.853478,-77988.521696
7845.079521,20429.683999,9474.636058,-73698.386908
7845.082129,13175.665768,5921.647536,-75230.577904
7845.084737,-16728.654289,444.123565,-77988.521696
7845.087345,-5033.400406,-1184.329507,-76149.892501
7845.089952,8882.471304,6365.771101,-75230.577904
7845.092560,-2960.823768,1776.494261,-76149.892501
7845.095168,-9918.759623,2368.659014,-79520.712692
7845.097776,6957.935855,-5033.400406,-73545.167808
7845.100384,40711.326810,-15988.448347,-71400.100414
7845.102992,33309.267390,3849.070898,-71859.757712
7845.105600,23686.590144,7698.141797,-74311.263306
7845.108208,28719.990550,-2220.617826,-69561.471218
7845.110816,-2516.700203,1628.453072,-76456.330700
7845.113424,-9474.636058,888.247130,-78294.959896
7845.116032,2812.782580,4145.153275,-76915.987999
7845.118640,6365.771101,-3849.070898,-74311.263306
7845.121248,-7994.224174,1332.370696,-77222.426198
7845.123856,-15396.283594,9622.677246,-78907.836294
7845.126464,5033.400406,-14508.036463,-72625.853210
7845.129072,14952.160028,6069.688724,-73698.386908
7845.131680,14508.036463,3108.864956,-75383.797003
7845.134288,-6365.771101,1924.535449,-75843.454302
7845.136896,-3404.947333,-10807.006753,-75843.454302
7845.139503,25907.207970,6069.688724,-74311.263306
7845.142111,7698.141797,20429.683999,-77528.864398
7845.144719,-14804.118840,-7254.018232,-78601.398095
7845.147327,15396.283594,11103.089130,-73851.606007
7845.149935,13175.665768,15988.448347,-74464.482406
7845.152543,-13619.789333,-4293.194464,-77222.426198
7845.155151,4737.318029,-8290.306550,-76149.892501
7845.157759,38934.832549,9178.553681,-73085.510509
7845.160367,35085.761651,15544.324782,-74158.044206
7845.162975,11695.253884,10955.047942,-75077.358804
7845.165583,-3108.864956,148.041188,-75690.235202
7845.168191,11251.130318,8438.347739,-73698.386908
7845.170738,7105.977043,21169.889941,-75690.235202
7845.173286,-18505.148550,4589.276840,-77528.864398
7845.175833,-22502.260637,9770.718434,-81512.560987
7845.178380,-13175.665768,16284.530724,-78601.398095
7845.180928,-14211.954086,-5033.400406,-77528.864398
7845.183475,-18209.066173,-14359.995275,-79520.712692
7845.186023,-18357.107362,12435.459826,-79827.150892
7845.188570,-2072.576638,3256.906145,-75230.577904
7845.191117,4885.359217,8734.430116,-75077.358804
7845.193665,2960.823768,-1628.453072,-77069.207099
7845.196212,11399.171507,18801.230927,-75230.577904
7845.198760,10955.047942,-296.082377,-74924.139704
7845.201307,13027.624579,4885.359217,-74924.139704
7845.203854,8882.471304,6365.771101,-77528.864398
7845.206402,17320.819043,12139.377449,-74617.701505
7845.208949,-3849.070898,14952.160028,-76149.892501
7845.211497,-14211.954086,4293.194464,-77222.426198
7845.214044,5033.400406,-6957.935855,-75690.235202
7845.216591,29608.237680,2664.741391,-75077.358804
7845.219139,18505.148550,8734.430116,-74464.482406
7845.221686,-11103.089130,0.000000,-75690.235202
7845.224234,7550.100608,-9622.677246,-75996.673402
7845.226781,10214.842000,8142.265362,-74770.920605
7845.229328,-16580.613101,7254.018232,-77835.302597
7845.231876,-25167.002028,-8586.388927,-79980.369991
7845.234423,12139.377449,9474.636058,-74004.825107
7845.236971,17172.777854,2664.741391,-75230.577904
7845.239518,-3701.029710,-1332.370696,-77069.207099
7845.242065,-1184.329507,-1332.370696,-76456.330700
7845.244613,6217.729913,2960.823768,-75230.577904
7845.247160,-3849.070898,3256.906145,-75843.454302
7845.249707,-148.041188,-10807.006753,-76609.549800
7845.252255,3849.070898,1332.370696,-77069.207099
7845.254802,-24574.837274,6809.894666,-77988.521696
7845.257350,-14508.036463,-5181.441594,-77222.426198
7845.259897,-11695.253884,-23686.590144,-79827.150892
7845.262444,-7698.141797,1184.329507,-79520.712692
7845.264992,-6365.771101,9622.677246,-76762.768900
7845.267539,-5921.647536,-10955.047942,-75230.577904
7845.270087,11547.212695,-1776.494261,-73851.606007
7845.272645,3404.947333,12139.377449,-76915.987999
7845.275203,-18801.230927,3997.112087,-78294.959896
7845.277762,-3404.947333,-2368.659014,-77988.521696
7845.280320,13619.789333,11399.171507,-74770.920605
7845.282878,-10955.047942,3404.947333,-76762.768900
7845.285436,-15544.324782,-9622.677246,-77528.864398
7845.287995,2220.617826,-10955.047942,-75690.235202
7845.290553,27683.702231,13471.748144,-72932.291410
7845.293111,-2368.659014,7550.100608,-77988.521696
7845.295670,-11547.212695,-3552.988522,-80286.808190
7845.298228,18505.148550,24130.713709,-73851.606007
7845.300786,3552.988522,9178.553681,-74464.482406
7845.303345,-4885.359217,-7994.224174,-75996.673402
7845.305903,23242.466579,-740.205942,-74770.920605
7845.308461,27979.784608,11991.336260,-73698.386908
7845.311019,-6661.853478,6661.853478,-77682.083497
7845.313578,-6513.812290,3552.988522,-77069.207099
7845.316136,2516.700203,8438.347739,-74924.139704
7845.318694,11843.295072,11547.212695,-74004.825107
7845.321253,-740.205942,7105.977043,-76456.330700
7845.323811,7550.100608,5329.482782,-77222.426198
7845.326369,13471.748144,20133.601622,-76149.892501
7845.328928,12287.418637,23538.548956,-72472.634111
7845.331486,7698.141797,5625.565159,-73391.948708
7845.334044,-3997.112087,-17172.777854,-75383.797003
7845.336602,-9770.718434,-17320.819043,-79061.055394
7845.339161,9326.594869,11547.212695,-77069.207099
7845.341719,3108.864956,23538.548956,-75843.454302
7845.344277,-14063.912898,8734.430116,-77528.864398
7845.346836,9326.594869,1036.288319,-75996.673402
7845.349394,17468.860231,2072.576638,-75537.016103
7845.351952,28571.949361,13175.665768,-73698.386908
7845.354511,-740.205942,4885.359217,-74924.139704
7845.357069,4737.318029,-3849.070898,-76303.111601
7845.359627,33013.185013,13767.830521,-72932.291410
7845.362185,2072.576638,17024.736666,-75230.577904
7845.364744,-34197.514520,6809.894666,-79827.150892
7845.367302,-17912.983796,148.041188,-78754.617194
7845.369860,19393.395680,4441.235652,-74770.920605
7845.372419,17764.942608,888.247130,-74158.044206
7845.374932,1036.288319,-15396.283594,-77222.426198
7845.377445,18949.272115,8734.430116,-73085.510509
7845.379958,31532.773129,11695.253884,-73698.386908
7845.382471,-5921.647536,9474.636058,-76915.987999
7845.384984,-27535.661042,-6957.935855,-79520.712692
7845.387497,2812.782580,1480.411884,-75843.454302
7845.390010,10658.965565,13175.665768,-74004.825107
7845.392523,-3404.947333,-9178.553681,-76762.768900
7845.395036,5033.400406,-1332.370696,-75690.235202
7845.397548,9918.759623,1480.411884,-76456.330700
7845.400061,-4589.276840,3997.112087,-76149.892501
7845.402574,-15988.448347,-6365.771101,-77988.521696
7845.405087,7846.182985,-5033.400406,-76149.892501
7845.407600,2072.576638,26943.496289,-76149.892501
7845.410113,-17024.736666,1036.288319,-71400.100414
7845.412626,-2368.659014,-6661.853478,-75843.454302
7845.415139,-1036.288319,-7994.224174,-76609.549800
7845.417652,6809.894666,7105.977043,-75996.673402
7845.420165,-8290.306550,-148.041188,-77069.207099
7845.422678,-14804.118840,-2960.823768,-76149.892501
7845.425191,8882.471304,-6809.894666,-76303.111601
7845.427704,26499.372724,10658.965565,-74158.044206
7845.430217,-7994.224174,3701.029710,-77375.645298
7845.432730,-24426.796086,-7254.018232,-78448.178995
7845.435243,9326.594869,2368.659014,-75690.235202
7845.437756,12731.542202,14804.118840,-73545.167808
7845.440269,-17320.819043,14656.077652,-78141.740796
7845.442782,-20429.683999,-6513.812290,-80593.246390
7845.445295,20429.683999,19097.313304,-73391.948708
7845.447808,18653.189738,13027.624579,-73085.510509
7845.450321,-9178.553681,-5625.565159,-76303.111601
7845.452834,12435.459826,-8290.306550,-75690.235202
7845.455347,34937.720462,9918.759623,-74158.044206
7845.457860,4145.153275,11399.171507,-76456.330700
7845.460373,-10214.842000,-2516.700203,-77988.521696
7845.462886,11251.130318,16728.654289,-74004.825107
7845.465399,10214.842000,9030.512492,-74158.044206
7845.467912,444.123565,444.123565,-76149.892501
7845.470425,5625.565159,-740.205942,-77528.864398
7845.472938,3997.112087,-2664.741391,-78601.398095
7845.475470,3108.864956,4441.235652,-76149.892501
7845.478002,1628.453072,2960.823768,-76303.111601
7845.480534,2664.741391,14656.077652,-74770.920605
7845.483066,-4737.318029,12731.542202,-75230.577904
7845.485598,1036.288319,5477.523971,-77528.864398
7845.488130,16432.571912,14359.995275,-74464.482406
7845.490661,8586.388927,7402.059420,-75230.577904
7845.493193,-2220.617826,2516.700203,-77528.864398
7845.495725,14063.912898,7550.100608,-76609.549800
7845.498257,23242.466579,2516.700203,-74004.825107
7845.500789,15692.365970,17172.777854,-73851.606007
7845.503321,7994.224174,15988.448347,-75230.577904
7845.505853,-25018.960840,11251.130318,-78141.740796
7845.508385,-13915.871710,-1036.288319,-77375.645298
7845.510917,19689.478057,-148.041188,-75537.016103
7845.513449,20281.642811,1036.288319,-74770.920605
7845.515980,5181.441594,-3849.070898,-75690.235202
7845.518512,14804.118840,-888.247130,-75230.577904
7845.521044,3849.070898,6809.894666,-75537.016103
7845.523576,-27831.743419,-1332.370696,-78294.959896
7845.526108,-13767.830521,-5625.565159,-78141.740796
7845.528640,18801.230927,17764.942608,-74158.044206
7845.531172,5329.482782,5329.482782,-76915.987999
7845.533704,-12879.583391,-3701.029710,-77682.083497
7845.536236,-5329.482782,-5329.482782,-76762.768900
7845.538768,11103.089130,3552.988522,-74004.825107
7845.541299,2664.741391,4293.194464,-74617.701505
7845.543831,-9030.512492,4293.194464,-80286.808190
7845.546363,-3404.947333,18949.272115,-76456.330700
7845.548895,-1480.411884,888.247130,-76609.549800
7845.551427,3552.988522,-15988.448347,-74311.263306
7845.553959,-3997.112087,1628.453072,-80286.808190
7845.556491,2220.617826,11991.336260,-75690.235202
7845.559023,-3404.947333,-5329.482782,-74617.701505
7845.561555,888.247130,-7402.059420,-76303.111601
7845.564087,7550.100608,-3404.947333,-78448.178995
7845.566619,7402.059420,9178.553681,-74924.139704
7845.569150,-8290.306550,-3997.112087,-76762.768900
7845.571682,-2368.659014,444.123565,-76762.768900
7845.574214,18209.066173,444.123565,-75690.235202
7845.576761,4885.359217,8586.388927,-74617.701505
7845.579308,-11695.253884,-17468.860231,-77222.426198
7845.581855,19245.354492,3552.988522,-74158.044206
7845.584402,13323.706956,23538.548956,-75843.454302
7845.586949,-16432.571912,-5625.565159,-79980.369991
7845.589496,14656.077652,11843.295072,-74158.044206
7845.592044,23834.631332,16432.571912,-72319.415011
7845.594591,-9030.512492,-3849.070898,-76456.330700
7845.597138,-14804.118840,-12879.583391,-77375.645298
7845.599685,17320.819043,1480.411884,-75230.577904
7845.602232,34197.514520,19689.478057,-74464.482406
7845.604779,-1036.288319,10214.842000,-76762.768900
7845.607326,-6809.894666,1184.329507,-75996.673402
7845.609873,16432.571912,5329.482782,-74158.044206
7845.612420,14952.160028,9770.718434,-75383.797003
7845.614967,3552.988522,1924.535449,-73851.606007
7845.617514,444.123565,-22354.219448,-77069.207099
7845.620061,23242.466579,11103.089130,-73698.386908
7845.622608,1184.329507,25907.207970,-77528.864398
7845.625155,-31680.814318,3256.906145,-82431.875585
7845.627702,1332.370696,-15544.324782,-76609.549800
7845.630249,12731.542202,13767.830521,-74158.044206
7845.632796,15692.365970,9326.594869,-74924.139704
7845.635343,-2368.659014,1924.535449,-78141.740796
7845.637890,4293.194464,8438.347739,-76609.549800
7845.640437,23834.631332,2960.823768,-74158.044206
7845.642984,23242.466579,22650.301825,-73085.510509
7845.645531,-14508.036463,1184.329507,-77988.521696
7845.648078,-11991.336260,1480.411884,-76915.987999
7845.650625,23686.590144,1184.329507,-74311.263306
7845.653172,30200.402434,5033.400406,-75383.797003
7845.655720,-2368.659014,10510.924376,-76456.330700
7845.658277,888.247130,-3404.947333,-75996.673402
7845.660834,6957.935855,1036.288319,-74617.701505
7845.663391,888.247130,5033.400406,-76915.987999
7845.665949,-25018.960840,1184.329507,-78448.178995
7845.668506,-13175.665768,-7105.977043,-77222.426198
7845.671063,15544.324782,16728.654289,-74617.701505
7845.673621,5033.400406,7846.182985,-76915.987999
7845.676178,-7994.224174,-6661.853478,-77835.302597
7845.678735,5181.441594,888.247130,-75230.577904
7845.681293,4589.276840,740.205942,-75843.454302
7845.683850,-5773.606348,3552.988522,-77835.302597
7845.686407,7105.977043,-7550.100608,-74464.482406
7845.688965,19837.519246,1480.411884,-77988.521696
7845.691522,-3256.906145,-19393.395680,-78448.178995
7845.694079,25463.084405,-7254.018232,-73238.729609
7845.696636,9918.759623,9030.512492,-77222.426198
7845.699194,-15692.365970,-4441.235652,-77988.521696
7845.701751,-6217.729913,-6661.853478,-77069.207099
7845.704308,15544.324782,9326.594869,-74158.044206
7845.706866,-3849.070898,7105.977043,-75230.577904
7845.709423,-19245.354492,10510.924376,-79367.493593
7845.711980,-18357.107362,7994.224174,-77682.083497
7845.714538,-10362.883188,-2516.700203,-77682.083497
7845.717095,7550.100608,-5329.482782,-75843.454302
7845.719652,5329.482782,6661.853478,-76609.549800
7845.722210,7994.224174,13027.624579,-74004.825107
7845.724767,-5329.482782,-5773.606348,-76915.987999
7845.727324,20281.642811,11251.130318,-75843.454302
7845.729881,10658.965565,20429.683999,-76609.549800
7845.732439,-7105.977043,888.247130,-76456.330700
7845.734996,12435.459826,9178.553681,-73391.948708
7845.737553,14656.077652,18949.272115,-73698.386908
7845.740111,-21169.889941,888.247130,-80440.027290
7845.742668,-11991.336260,2072.576638,-79214.274493
7845.745225,29904.320057,9918.759623,-73851.606007
7845.747783,20429.683999,17320.819043,-73545.167808
7845.750340,-6217.729913,2960.823768,-76762.768900
7845.752897,0.000000,-740.205942,-76303.111601
7845.755454,12139.377449,15544.324782,-74617.701505
7845.758012,-1036.288319,18801.230927,-77528.864398
7845.760577,-7846.182985,10066.800811,-78448.178995
7845.763143,1480.411884,16284.530724,-76915.987999
7845.765708,17172.777854,7994.224174,-72472.634111
7845.768273,11103.089130,3997.112087,-75383.797003
7845.770839,3552.988522,5773.606348,-76456.330700
7845.773404,3256.906145,4441.235652,-75690.235202
7845.775969,8290.306550,14359.995275,-77222.426198
7845.778535,10362.883188,11695.253884,-76149.892501
7845.781100,13027.624579,-1924.535449,-77375.645298
7845.783665,20577.725188,8438.347739,-73698.386908
7845.786231,9030.512492,11695.253884,-73851.606007
7845.788796,-12731.542202,5773.606348,-77528.864398
7845.791362,1776.494261,-6365.771101,-76303.111601
7845.793927,31976.896694,3997.112087,-74464.482406
7845.796492,14359.995275,7254.018232,-75537.016103
7845.799058,-12731.542202,1480.411884,-76149.892501
7845.801623,-296.082377,1924.535449,-76762.768900
7845.804188,-5181.441594,5773.606348,-77222.426198
7845.806754,-20133.601622,-7254.018232,-78294.959896
7845.809319,6661.853478,-3256.906145,-76609.549800
7845.811884,14656.077652,18505.148550,-74311.263306
7845.814450,3108.864956,4885.359217,-76915.987999
7845.817015,-5921.647536,-4145.153275,-76456.330700
7845.819580,7994.224174,-3256.906145,-74924.139704
7845.822146,9622.677246,-444.123565,-75383.797003
7845.824711,-5921.647536,-592.164754,-78141.740796
7845.827277,6069.688724,-6217.729913,-74924.139704
7845.829842,15988.448347,7402.059420,-73698.386908
7845.832407,11103.089130,10510.924376,-75690.235202
7845.834973,-8734.430116,17172.777854,-79061.055394
7845.837538,2812.782580,-3701.029710,-75230.577904
7845.840103,10807.006753,-2960.823768,-74158.044206
7845.842669,3256.906145,10214.842000,-75537.016103
7845.845234,-9030.512492,-888.247130,-77375.645298
7845.847799,-10955.047942,10658.965565,-76303.111601
7845.850365,-13767.830521,-148.041188,-77835.302597
7845.852930,3552.988522,-2368.659014,-76456.330700
7845.855496,15248.242405,444.123565,-75690.235202
7845.858061,4885.359217,888.247130,-75690.235202
7845.860626,888.247130,-14359.995275,-74770.920605
7845.863198,18357.107362,4589.276840,-74770.920605
7845.865771,2516.700203,15988.448347,-76762.768900
7845.868343,-11251.130318,-2516.700203,-77988.521696
7845.870915,21169.889941,17912.983796,-73085.510509
7845.873487,15100.201217,11399.171507,-73545.167808
7845.876059,-7402.059420,-6957.935855,-76456.330700
7845.878631,296.082377,-15988.448347,-75690.235202
7845.881203,29460.196492,8586.388927,-74464.482406
7845.883775,20281.642811,19097.313304,-75690.235202
7845.886348,-10362.883188,2368.659014,-78141.740796
7845.888920,5329.482782,6957.935855,-74311.263306
7845.891492,17616.901420,12139.377449,-73698.386908
7845.894064,-1924.535449,13027.624579,-75843.454302
7845.896636,2960.823768,8290.306550,-75537.016103
7845.899208,17320.819043,23982.672521,-73851.606007
7845.901780,23538.548956,11695.253884,-75077.358804
7845.904352,26351.331535,3404.947333,-73698.386908
7845.906925,13471.748144,4441.235652,-78754.617194
7845.909497,-2220.617826,7402.059420,-77222.426198
7845.912069,12139.377449,9474.636058,-74004.825107
7845.914641,15988.448347,4737.318029,-74464.482406
7845.917213,9622.677246,8438.347739,-77375.645298
7845.919785,6365.771101,7105.977043,-77222.426198
7845.922357,19689.478057,11991.336260,-73085.510509
7845.924929,3108.864956,5773.606348,-74311.263306
7845.927501,-10066.800811,6217.729913,-77069.207099
7845.930074,6069.688724,-3108.864956,-75537.016103
7845.932646,31088.649564,6957.935855,-75077.358804
7845.935218,7402.059420,15988.448347,-75077.358804
7845.937790,-24870.919651,-3108.864956,-78294.959896
7845.940362,-4737.318029,-5181.441594,-75996.673402
7845.942934,3997.112087,7254.018232,-75537.016103
7845.945506,-15988.448347,-296.082377,-78754.617194
7845.948078,-10955.047942,-4441.235652,-77988.521696
7845.950651,5921.647536,14063.912898,-75996.673402
7845.953223,3256.906145,3256.906145,-75843.454302
7845.955795,444.123565,-3256.906145,-76609.549800
7845.958367,11991.336260,1036.288319,-74617.701505
7845.960939,3552.988522,-296.082377,-75690.235202
7845.963511,-12287.418637,3404.947333,-79520.712692
7845.966087,7550.100608,-3849.070898,-75996.673402
7845.968663,14359.995275,10807.006753,-74464.482406
7845.971239,-1184.329507,12583.501014,-75690.235202
7845.973815,-21762.054695,-3404.947333,-80133.589091
7845.976391,3849.070898,-4441.235652,-76609.549800
7845.978967,19097.313304,5477.523971,-73851.606007
7845.981544,-3997.112087,-6957.935855,-75690.235202
7845.984120,-17616.901420,-592.164754,-77835.302597
7845.986696,7994.224174,444.123565,-77528.864398
7845.989272,20873.807564,12287.418637,-72625.853210
7845.991848,-16728.654289,4589.276840,-77528.864398
7845.994424,-23982.672521,-10658.965565,-79520.712692
7845.997000,4737.318029,14211.954086,-76915.987999
7845.999577,-4441.235652,1184.329507,-75690.235202
7846.002153,-740.205942,-12583.501014,-76762.768900
7846.004729,2812.782580,7402.059420,-77528.864398
7846.007305,23242.466579,29164.114115,-73698.386908
7846.009881,3701.029710,2664.741391,-76303.111601
7846.012457,7402.059420,1036.288319,-74158.044206
7846.015033,13323.706956,16432.571912,-74158.044206
7846.017609,-16728.654289,10955.047942,-78754.617194
7846.020186,-22206.178260,3108.864956,-80286.808190
7846.022762,21614.013506,3849.070898,-75230.577904
7846.025338,30052.361245,16728.654289,-73545.167808
7846.027914,1184.329507,5033.400406,-76303.111601
7846.030490,4441.235652,5773.606348,-75843.454302
7846.033066,19541.436869,1184.329507,-70940.443115
7846.035642,-9030.512492,1480.411884,-77835.302597
7846.038218,-7994.224174,-2960.823768,-78448.178995
7846.040795,21465.972318,-444.123565,-73391.948708
7846.043371,4145.153275,11103.089130,-77835.302597
7846.045947,-5181.441594,9918.759623,-76915.987999
7846.048523,-148.041188,-2516.700203,-75690.235202
7846.051099,22946.384202,11103.089130,-73545.167808
7846.053675,16284.530724,16728.654289,-75383.797003
7846.056251,1184.329507,3997.112087,-78294.959896
7846.058828,19541.436869,12731.542202,-74464.482406
7846.061404,4145.153275,6957.935855,-74924.139704
7846.063980,-14656.077652,5477.523971,-76303.111601
7846.066556,6513.812290,-6957.935855,-79673.931792
7846.069136,18505.148550,888.247130,-76303.111601
7846.071715,37158.338288,6069.688724,-73238.729609
7846.074295,444.123565,-148.041188,-76456.330700
7846.076874,-6661.853478,148.041188,-77069.207099
7846.079454,-2516.700203,5625.565159,-75843.454302
7846.082033,-19393.395680,0.000000,-78141.740796
7846.084613,-10362.883188,-6957.935855,-77988.521696
7846.087193,5477.523971,18357.107362,-76303.111601
7846.089772,3997.112087,3701.029710,-76609.549800
7846.092352,4589.276840,-4885.359217,-76303.111601
7846.094931,10066.800811,5625.565159,-74617.701505
7846.097511,-2516.700203,1036.288319,-76456.330700
7846.100091,-444.123565,2664.741391,-75077.358804
7846.102670,18949.272115,-9326.594869,-75077.358804
7846.105250,23834.631332,10066.800811,-73851.606007
7846.107829,14211.954086,-5625.565159,-74311.263306
7846.110409,3552.988522,148.041188,-75537.016103
7846.112989,-3256.906145,6069.688724,-76149.892501
7846.115568,0.000000,-8438.347739,-77069.207099
7846.118148,4589.276840,8734.430116,-75843.454302
7846.120727,-5477.523971,7550.100608,-75690.235202
7846.123307,-28275.866984,-2516.700203,-79673.931792
7846.125887,-8142.265362,3108.864956,-77069.207099
7846.128466,22354.219448,-4145.153275,-74617.701505
7846.131046,16876.695478,5329.482782,-74617.701505
7846.133625,-444.123565,-13471.748144,-76915.987999
7846.136205,18209.066173,1480.411884,-74617.701505
7846.138785,22206.178260,18653.189738,-74464.482406
7846.141364,-4885.359217,444.123565,-76762.768900
7846.143944,3108.864956,14211.954086,-75537.016103
7846.146523,10362.883188,15988.448347,-74464.482406
7846.149103,-3404.947333,-2664.741391,-76149.892501
7846.151682,14211.954086,-12583.501014,-75383.797003
7846.154262,34493.596897,7846.182985,-73545.167808
7846.156842,5033.400406,17912.983796,-75843.454302
7846.159421,-19541.436869,592.164754,-79214.274493
7846.162001,-2368.659014,7550.100608,-75537.016103
7846.164580,13175.665768,11399.171507,-73085.510509
7846.167160,148.041188,2664.741391,-77988.521696
7846.169740,9622.677246,7254.018232,-74004.825107
7846.172321,9918.759623,10658.965565,-74464.482406
7846.174902,18505.148550,-16136.489536,-74924.139704
7846.177483,12435.459826,8290.306550,-78601.398095
7846.180064,148.041188,21317.931130,-75690.235202
7846.182645,-5625.565159,-592.164754,-75537.016103
7846.185226,14508.036463,16136.489536,-73698.386908
7846.187807,22798.343014,11991.336260,-74311.263306
7846.190388,7254.018232,1184.329507,-77682.083497
7846.192970,21021.848753,8438.347739,-74924.139704
7846.195551,11991.336260,12139.377449,-72932.291410
7846.198132,-12879.583391,9178.553681,-75690.235202
7846.200713,-13027.624579,-6217.729913,-77682.083497
7846.203294,22946.384202,2516.700203,-75537.016103
7846.205875,29016.072926,7105.977043,-74004.825107
7846.208456,-4737.318029,1036.288319,-77528.864398
7846.211037,-6513.812290,5181.441594,-76915.987999
7846.213618,-8734.430116,3108.864956,-76609.549800
7846.216200,-19985.560434,-4885.359217,-77375.645298
7846.218781,148.041188,-5773.606348,-77528.864398
7846.221362,13323.706956,15100.201217,-75077.358804
7846.223943,6365.771101,1332.370696,-77375.645298
7846.226524,6957.935855,-2220.617826,-75230.577904
7846.229105,9770.718434,2960.823768,-74311.263306
7846.231686,-1628.453072,-1184.329507,-76762.768900
7846.234267,2072.576638,2072.576638,-75077.358804
7846.236848,10214.842000,4737.318029,-76149.892501
7846.239429,12731.542202,14656.077652,-75383.797003
7846.242011,-8734.430116,1332.370696,-75537.016103
7846.244592,-6809.894666,-6513.812290,-76456.330700
7846.247173,11103.089130,6809.894666,-75077.358804
7846.249754,1184.329507,1776.494261,-76149.892501
7846.252335,-11399.171507,-11251.130318,-77375.645298
7846.254916,888.247130,888.247130,-77375.645298
7846.257497,19245.354492,6069.688724,-72625.853210
7846.260078,3849.070898,12435.459826,-75843.454302
7846.262659,-28127.825796,-6513.812290,-79827.150892
7846.265241,-1924.535449,5773.606348,-78141.740796
7846.267822,4441.235652,8438.347739,-74770.920605
7846.270403,-8734.430116,-6217.729913,-77375.645298
7846.272984,15248.242405,10066.800811,-74770.920605
7846.275566,14952.160028,20577.725188,-75537.016103
7846.278149,7254.018232,3849.070898,-75537.016103
7846.280732,12879.583391,7254.018232,-74004.825107
7846.283314,6661.853478,12139.377449,-74158.044206
7846.285897,-16284.530724,-5625.565159,-78907.836294
7846.288479,0.000000,5181.441594,-77222.426198
7846.291062,12731.542202,3997.112087,-75537.016103
7846.293645,19837.519246,13027.624579,-73851.606007
7846.296227,7402.059420,6217.729913,-75843.454302
7846.298810,11695.253884,592.164754,-73545.167808
7846.301392,6661.853478,2812.782580,-74004.825107
7846.303975,-6957.935855,-10362.883188,-77222.426198
7846.306557,6809.894666,1480.411884,-77988.521696
7846.309140,33457.308578,21169.889941,-71093.662214
7846.311723,5329.482782,2664.741391,-77069.207099
7846.314305,-1332.370696,-1924.535449,-76456.330700
7846.316888,14804.118840,12435.459826,-74311.263306
7846.319470,12139.377449,13767.830521,-74464.482406
7846.322053,4737.318029,2072.576638,-77375.645298
7846.324636,9030.512492,12731.542202,-76915.987999
7846.327218,9178.553681,6513.812290,-74924.139704
7846.329801,-3404.947333,5477.523971,-76149.892501
7846.332383,-1036.288319,-5477.523971,-75843.454302
7846.334966,27979.784608,7698.141797,-74004.825107
7846.337548,16728.654289,12139.377449,-75230.577904
7846.340131,-17912.983796,-1184.329507,-78754.617194
7846.342714,-11843.295072,6217.729913,-77835.302597
7846.345296,-12139.377449,-740.205942,-77528.864398
7846.347879,-11547.212695,-7254.018232,-76303.111601
7846.350461,14952.160028,1332.370696,-75690.235202
7846.353044,13619.789333,444.123565,-74464.482406
7846.355627,4441.235652,-592.164754,-76762.768900
7846.358209,6957.935855,296.082377,-75843.454302
7846.360792,4589.276840,9770.718434,-75230.577904
7846.363374,-3256.906145,-5033.400406,-76303.111601
7846.365957,-296.082377,3552.988522,-74924.139704
7846.368540,2072.576638,8734.430116,-77069.207099
7846.371122,7698.141797,8882.471304,-77069.207099
7846.373705,-1776.494261,5033.400406,-77682.083497
7846.376287,5921.647536,2368.659014,-73238.729609
7846.378870,5033.400406,592.164754,-75077.358804
7846.381452,1628.453072,-1480.411884,-75843.454302
7846.384035,-8290.306550,5921.647536,-77835.302597
7846.386617,-19541.436869,5329.482782,-77528.864398
7846.389199,-11399.171507,1776.494261,-77375.645298
7846.391782,13027.624579,1776.494261,-75230.577904
7846.394364,6957.935855,4145.153275,-75537.016103
7846.396947,148.041188,-16580.613101,-76609.549800
7846.399529,14063.912898,11843.295072,-74924.139704
7846.402111,-7846.182985,7402.059420,-77988.521696
7846.404694,-12435.459826,148.041188,-79367.493593
7846.407276,18949.272115,29016.072926,-73545.167808
7846.409859,11399.171507,9030.512492,-73851.606007
7846.412441,3849.070898,-1184.329507,-75383.797003
7846.415024,16136.489536,13915.871710,-75077.358804
7846.417606,-4293.194464,7846.182985,-77835.302597
7846.420188,-3404.947333,8882.471304,-76762.768900
7846.422771,-14063.912898,3108.864956,-77988.521696
7846.425353,9622.677246,19245.354492,-74924.139704
7846.427936,15544.324782,5033.400406,-73698.386908
7846.430518,1332.370696,6069.688724,-77528.864398
7846.433101,-9030.512492,21614.013506,-76762.768900
7846.435683,-14211.954086,9474.636058,-77375.645298
7846.438265,-2664.741391,17764.942608,-77528.864398
7846.440848,8290.306550,11843.295072,-75690.235202
7846.443430,9622.677246,6513.812290,-75843.454302
7846.446013,12435.459826,16728.654289,-73698.386908
7846.448595,-888.247130,6069.688724,-76303.111601
7846.451177,5181.441594,5477.523971,-75537.016103
7846.453760,2664.741391,13915.871710,-77528.864398
7846.456342,-444.123565,2368.659014,-77988.521696
7846.458925,12435.459826,148.041188,-74770.920605
7846.461507,28571.949361,6809.894666,-73851.606007
7846.464090,9030.512492,20133.601622,-75996.673402
7846.466672,-25463.084405,7254.018232,-78907.836294
7846.469254,-19393.395680,-2072.576638,-78448.178995
7846.471837,1480.411884,9326.594869,-76303.111601
7846.474419,-2960.823768,-12287.418637,-78141.740796
7846.477002,12731.542202,-1628.453072,-74311.263306
7846.479584,20873.807564,7550.100608,-74158.044206
7846.482166,14359.995275,-296.082377,-75077.358804
7846.484748,7698.141797,-888.247130,-76149.892501
7846.487330,3108.864956,5329.482782,-76303.111601
7846.489911,-15100.201217,5921.647536,-76915.987999
7846.492493,-6661.853478,-9326.594869,-76303.111601
7846.495075,1184.329507,10066.800811,-78141.740796
7846.497657,-5329.482782,11843.295072,-76762.768900
7846.500239,148.041188,-1924.535449,-77835.302597
7846.502821,6513.812290,12435.459826,-76915.987999
7846.505402,6365.771101,11251.130318,-74311.263306
7846.507984,-3701.029710,-9770.718434,-75537.016103
7846.510566,2960.823768,-7698.141797,-76303.111601
7846.513148,3256.906145,9474.636058,-76456.330700
7846.515730,-18653.189738,16876.695478,-75843.454302
7846.518312,-27239.578666,2812.782580,-79827.150892
7846.520893,-1332.370696,-3404.947333,-76915.987999
7846.523475,16136.489536,4293.194464,-74004.825107
7846.526057,3108.864956,-15248.242405,-76149.892501
7846.528639,14804.118840,3849.070898,-74770.920605
7846.531221,7994.224174,14508.036463,-76303.111601
7846.533802,-5625.565159,-2368.659014,-77988.521696
7846.536384,16136.489536,19985.560434,-74311.263306
7846.538966,8438.347739,15840.407159,-73851.606007
7846.541548,-7846.182985,-4441.235652,-76303.111601
7846.544130,15988.448347,5625.565159,-76609.549800
7846.546712,14656.077652,11843.295072,-74311.263306
7846.549293,11843.295072,14952.160028,-75690.235202
7846.551875,-19541.436869,3701.029710,-78448.178995
7846.554457,296.082377,14952.160028,-75996.673402
7846.557039,20577.725188,14804.118840,-74158.044206
7846.559621,16284.530724,0.000000,-74158.044206
7846.562203,17912.983796,12583.501014,-71400.100414
7846.564784,22650.301825,-3108.864956,-71400.100414
7846.567366,24574.837274,-5477.523971,-74004.825107
7846.569948,11843.295072,15248.242405,-78601.398095
7846.572530,-11991.336260,13175.665768,-78294.959896
7846.575112,-1332.370696,740.205942,-74924.139704
7846.577693,33161.226202,7994.224174,-71859.757712
7846.580275,19837.519246,4145.153275,-73698.386908
7846.582857,18949.272115,-4589.276840,-76762.768900
7846.585397,14211.954086,13619.789333,-75230.577904
7846.587936,-3404.947333,17172.777854,-75230.577904
7846.590476,-18801.230927,-2368.659014,-77375.645298
7846.593015,888.247130,-296.082377,-76456.330700
7846.595555,26943.496289,3701.029710,-73698.386908
7846.598095,14952.160028,2368.659014,-74770.920605
7846.600634,4589.276840,-6661.853478,-76456.330700
7846.603174,-6069.688724,1628.453072,-77528.864398
7846.605713,-20725.766376,4145.153275,-77835.302597
7846.608253,-10066.800811,-4737.318029,-77222.426198
7846.610792,3256.906145,16136.489536,-74770.920605
7846.613332,-13323.706956,-296.082377,-78601.398095
7846.615872,4441.235652,444.123565,-75690.235202
7846.618411,14508.036463,1480.411884,-74924.139704
7846.620951,5181.441594,-2368.659014,-74311.263306
7846.623490,-9326.594869,-888.247130,-77069.207099
7846.626030,2368.659014,-148.041188,-78448.178995
7846.628569,-2072.576638,23242.466579,-78448.178995
7846.631109,-7105.977043,-888.247130,-74924.139704
7846.633649,1924.535449,-12879.583391,-75230.577904
7846.636188,16432.571912,9474.636058,-74464.482406
7846.638728,1776.494261,-5921.647536,-76456.330700
7846.641267,-29312.155303,-2516.700203,-79214.274493
7846.643807,-11399.171507,1628.453072,-77528.864398
7846.646347,1036.288319,1036.288319,-76609.549800
7846.648886,11547.212695,6513.812290,-75230.577904
7846.651426,2220.617826,-19245.354492,-76149.892501
7846.653965,19689.478057,8438.347739,-73698.386908
7846.656505,7994.224174,10510.924376,-75383.797003
7846.659044,-9474.636058,-3108.864956,-79061.055394
7846.661584,14063.912898,21021.848753,-74617.701505
7846.664124,10955.047942,11103.089130,-73545.167808
7846.666663,-1332.370696,1184.329507,-74617.701505
7846.669203,13323.706956,13175.665768,-75537.016103
7846.671742,2072.576638,9178.553681,-76762.768900
7846.674282,-14656.077652,2516.700203,-77988.521696
7846.676821,-15396.283594,1036.288319,-77835.302597
7846.679361,9326.594869,16136.489536,-74924.139704
7846.681901,18061.024985,6809.894666,-76149.892501
7846.684440,16284.530724,-9622.677246,-74617.701505
7846.686988,26499.372724,5033.400406,-70021.128517
7846.689536,6957.935855,1480.411884,-74924.139704
7846.692084,-10066.800811,-148.041188,-81206.122788
7846.694632,6365.771101,16580.613101,-78141.740796
7846.697180,6069.688724,20873.807564,-75230.577904
7846.699728,-1776.494261,9178.553681,-74464.482406
7846.702276,15396.283594,2368.659014,-74464.482406
7846.704824,19985.560434,10066.800811,-74158.044206
7846.707372,10214.842000,-2664.741391,-77375.645298
7846.709920,8142.265362,2960.823768,-75077.358804
7846.712468,18801.230927,8586.388927,-75077.358804
7846.715016,5033.400406,24722.878463,-76149.892501
7846.717564,-29312.155303,10955.047942,-79367.493593
7846.720112,-19985.560434,-6661.853478,-78141.740796
7846.722660,7698.141797,6217.729913,-74770.920605
7846.725208,8290.306550,-12879.583391,-77528.864398
7846.727756,14063.912898,-1628.453072,-75230.577904
7846.730304,12435.459826,8586.388927,-75230.577904
7846.732852,-5625.565159,-2072.576638,-76762.768900
7846.735400,-18357.107362,22502.260637,-77528.864398
7846.737948,-19689.478057,-1480.411884,-79061.055394
7846.740496,-19837.519246,2516.700203,-78141.740796
7846.743044,-2960.823768,2664.741391,-77528.864398
7846.745592,13471.748144,-296.082377,-74617.701505
7846.748140,8882.471304,8734.430116,-75383.797003
7846.750688,10510.924376,-1036.288319,-76915.987999
7846.753236,9622.677246,-7698.141797,-73851.606007
7846.755784,5625.565159,2812.782580,-74617.701505
7846.758332,-9918.759623,3108.864956,-77069.207099
7846.760880,-5773.606348,-444.123565,-76456.330700
7846.763428,7698.141797,-18357.107362,-75383.797003
7846.765976,19541.436869,-888.247130,-73851.606007
7846.768524,1480.411884,12731.542202,-77222.426198
7846.771072,3256.906145,9326.594869,-75230.577904
7846.773620,-8734.430116,-6809.894666,-77988.521696
7846.776168,-2220.617826,13619.789333,-75843.454302
7846.778716,-12583.501014,-4737.318029,-77682.083497
7846.781264,7994.224174,6661.853478,-76915.987999
7846.783812,17764.942608,31236.690752,-74770.920605
7846.786360,7698.141797,2072.576638,-75690.235202
7846.788915,18209.066173,5181.441594,-72932.291410
7846.791470,13619.789333,11103.089130,-73085.510509
7846.794025,-17172.777854,-2960.823768,-79367.493593
7846.796580,-7698.141797,4737.318029,-78754.617194
7846.799135,26943.496289,8290.306550,-75230.577904
7846.801690,14804.118840,19541.436869,-74004.825107
7846.804245,-2072.576638,10658.965565,-77682.083497
7846.806800,9030.512492,-1184.329507,-75690.235202
7846.809355,29164.114115,14359.995275,-70021.128517
7846.811910,14063.912898,-5033.400406,-72932.291410
7846.814465,3108.864956,-6365.771101,-76762.768900
7846.817020,11843.295072,22946.384202,-78294.959896
7846.819575,-2664.741391,22798.343014,-77988.521696
7846.822130,-4441.235652,4441.235652,-75690.235202
7846.824685,26499.372724,-2072.576638,-72012.976812
7846.827240,21910.095883,17468.860231,-73851.606007
7846.829795,-8586.388927,2516.700203,-78601.398095
7846.832350,4589.276840,2960.823768,-76149.892501
7846.834905,15840.407159,4293.194464,-74924.139704
7846.837460,14952.160028,22798.343014,-75230.577904
7846.840015,-27535.661042,12879.583391,-78601.398095
7846.842570,-23538.548956,-9326.594869,-77988.521696
7846.845125,13175.665768,7846.182985,-73698.386908
7846.847680,7994.224174,-11695.253884,-76762.768900
7846.850235,4293.194464,-10066.800811,-76609.549800
7846.852790,14952.160028,12287.418637,-74311.263306
7846.855345,-2220.617826,4885.359217,-76456.330700
7846.857900,-16136.489536,18505.148550,-77835.302597
7846.860455,-18505.148550,-888.247130,-79673.931792
7846.863010,-4145.153275,-888.247130,-77069.207099
7846.865565,10955.047942,1776.494261,-75843.454302
7846.868120,7698.141797,-4885.359217,-75996.673402
7846.870675,11695.253884,1184.329507,-75843.454302
7846.873230,3256.906145,592.164754,-76609.549800
7846.875785,-17024.736666,-444.123565,-80440.027290
7846.878340,-148.041188,-1184.329507,-75996.673402
7846.880895,5773.606348,1184.329507,-74617.701505
7846.883450,-296.082377,740.205942,-76456.330700
7846.886005,-18653.189738,17764.942608,-77528.864398
7846.888560,-25018.960840,5033.400406,-79061.055394
7846.891120,1036.288319,-8586.388927,-76149.892501
7846.893680,10658.965565,7105.977043,-74924.139704
7846.896240,9770.718434,-17912.983796,-76303.111601
7846.898799,24870.919651,3701.029710,-73851.606007
7846.901359,23390.507767,12583.501014,-75077.358804
7846.903919,2072.576638,-2664.741391,-76609.549800
7846.906478,12435.459826,16284.530724,-74770.920605
7846.909038,8882.471304,16432.571912,-74311.263306
7846.911598,-6365.771101,740.205942,-75077.358804
7846.914158,16284.530724,-1924.535449,-76456.330700
7846.916717,19837.519246,12583.501014,-75383.797003
7846.919277,-11251.130318,6809.894666,-78448.178995
7846.921837,-9326.594869,1332.370696,-77682.083497
7846.924396,14656.077652,24722.878463,-74924.139704
7846.926956,9178.553681,12583.501014,-73851.606007
7846.929516,-7254.018232,-2072.576638,-75537.016103
7846.932076,-25759.166782,-3997.112087,-81512.560987
7846.934635,14804.118840,17320.819043,-73851.606007
7846.937195,20577.725188,19097.313304,-73085.510509
7846.939755,0.000000,-1776.494261,-78294.959896
7846.942314,10955.047942,13175.665768,-75996.673402
7846.944874,17468.860231,14359.995275,-74617.701505
7846.947434,-296.082377,8290.306550,-73851.606007
7846.949994,3849.070898,-7698.141797,-75077.358804
7846.952553,25759.166782,4737.318029,-75690.235202
7846.955113,16432.571912,26203.290347,-75537.016103
7846.957673,-21169.889941,888.247130,-77988.521696
7846.960232,-7698.141797,444.123565,-77222.426198
7846.962792,25907.207970,-6069.688724,-76609.549800
7846.965352,20133.601622,5329.482782,-73238.729609
7846.967911,8290.306550,-16728.654289,-77528.864398
7846.970471,4589.276840,-1332.370696,-75843.454302
7846.973031,1332.370696,11103.089130,-76609.549800
7846.975591,-8438.347739,-2220.617826,-77069.207099
7846.978150,-16728.654289,16284.530724,-76762.768900
7846.980710,-9770.718434,-2072.576638,-77682.083497
7846.983270,11695.253884,-2220.617826,-76303.111601
7846.985829,18357.107362,6217.729913,-75537.016103
7846.988389,14211.954086,-13175.665768,-72779.072310
7846.990949,7254.018232,9474.636058,-74158.044206
7846.993512,12583.501014,-7994.224174,-76456.330700
7846.996076,-10362.883188,4145.153275,-80440.027290
7846.998639,-296.082377,592.164754,-76609.549800
7847.001203,1628.453072,-3701.029710,-74924.139704
7847.003767,5477.523971,-6069.688724,-75383.797003
7847.006330,2516.700203,9326.594869,-75843.454302
7847.008894,-17764.942608,11547.212695,-78601.398095
7847.011458,-20429.683999,-8586.388927,-79214.274493
7847.014021,-1924.535449,6513.812290,-75537.016103
7847.016585,7698.141797,-13471.748144,-76762.768900
7847.019149,25907.207970,148.041188,-73851.606007
7847.021713,14656.077652,14804.118840,-74924.139704
7847.024276,-5329.482782,-5033.400406,-77988.521696
7847.026840,15248.242405,10214.842000,-74924.139704
7847.029404,16136.489536,18061.024985,-74770.920605
7847.031967,-3404.947333,8290.306550,-74158.044206
7847.034531,1332.370696,-13619.789333,-76915.987999
7847.037095,23686.590144,9918.759623,-74464.482406
7847.039658,5181.441594,12583.501014,-76915.987999
7847.042222,-14211.954086,-3256.906145,-78907.836294
7847.044786,7550.100608,17764.942608,-74311.263306
7847.047349,18653.189738,10066.800811,-76303.111601
7847.049913,9326.594869,17320.819043,-73545.167808
7847.052477,1332.370696,14211.954086,-74770.920605
7847.055040,4145.153275,1480.411884,-74311.263306
7847.057604,12731.542202,6069.688724,-77682.083497
7847.060168,11251.130318,14656.077652,-77988.521696
7847.062732,1036.288319,15396.283594,-77528.864398
7847.065295,5921.647536,740.205942,-74311.263306
7847.067859,27387.619854,11695.253884,-70634.004916
7847.070423,10510.924376,5477.523971,-75996.673402
7847.072986,-7846.182985,444.123565,-77682.083497
7847.075553,8290.306550,1480.411884,-76762.768900
7847.078121,26203.290347,23094.425390,-74311.263306
7847.080688,-10510.924376,11843.295072,-76456.330700
7847.083255,-27683.702231,-3552.988522,-78448.178995
7847.085822,-3552.988522,7402.059420,-75690.235202
7847.088390,-1924.535449,-13027.624579,-78141.740796
7847.090957,4293.194464,-8290.306550,-78448.178995
7847.093524,9326.594869,148.041188,-75843.454302
7847.096091,20577.725188,9326.594869,-74158.044206
7847.098658,15100.201217,12731.542202,-73391.948708
7847.101226,-11103.089130,2368.659014,-78141.740796
7847.103793,-20281.642811,-1332.370696,-77835.302597
7847.106360,-7105.977043,-7254.018232,-79673.931792
7847.108927,-1036.288319,17912.983796,-75690.235202
7847.111494,-3701.029710,3552.988522,-77069.207099
7847.114062,-2516.700203,4885.359217,-79367.493593
7847.116629,3108.864956,11843.295072,-74464.482406
7847.119196,444.123565,-6957.935855,-75690.235202
7847.121763,1924.535449,9770.718434,-76915.987999
7847.124331,-5773.606348,6809.894666,-76456.330700
7847.126898,-21317.931130,7846.182985,-77375.645298
7847.129465,-11991.336260,-2812.782580,-78754.617194
7847.132032,7402.059420,5329.482782,-76762.768900
7847.134599,11695.253884,-12287.418637,-74770.920605
7847.137167,14804.118840,1036.288319,-74464.482406
7847.139734,740.205942,8586.388927,-76303.111601
7847.142301,-2368.659014,-2072.576638,-78294.959896
7847.144868,14359.995275,24574.837274,-74617.701505
7847.147436,2220.617826,10362.883188,-75230.577904
7847.150003,9178.553681,3108.864956,-74311.263306
7847.152570,19393.395680,19837.519246,-73085.510509
7847.155137,-13915.871710,10955.047942,-75996.673402
7847.157704,-14804.118840,-888.247130,-78294.959896
7847.160272,1628.453072,3701.029710,-76762.768900
7847.162839,19097.313304,25018.960840,-73238.729609
7847.165406,10362.883188,2368.659014,-76303.111601
7847.167973,19689.478057,6365.771101,-73698.386908
7847.170540,10510.924376,22650.301825,-71246.881314
7847.173108,-16876.695478,-888.247130,-78448.178995
7847.175675,-1480.411884,5033.400406,-78907.836294
7847.178244,21614.013506,17764.942608,-76762.768900
7847.180812,11695.253884,13619.789333,-76303.111601
7847.183381,-4441.235652,9770.718434,-77069.207099
7847.185950,16580.613101,2516.700203,-72012.976812
7847.188518,19985.560434,11695.253884,-73238.729609
7847.191087,-7698.141797,2072.576638,-77375.645298
7847.193656,-6661.853478,-3404.947333,-78754.617194
7847.196224,34197.514520,11251.130318,-73238.729609
7847.198793,19689.478057,17616.901420,-73698.386908
7847.201362,-27979.784608,1480.411884,-78141.740796
7847.203930,-23242.466579,1776.494261,-77835.302597
7847.206499,-4885.359217,-8586.388927,-77375.645298
7847.209068,-296.082377,-7105.977043,-77069.207099
7847.211636,10510.924376,2516.700203,-76609.549800
7847.214205,9326.594869,8734.430116,-75383.797003
7847.216774,2368.659014,18801.230927,-72166.195912
7847.219342,8586.388927,4441.235652,-75843.454302
7847.221911,-18209.066173,-4589.276840,-79520.712692
7847.224480,-9178.553681,-19097.313304,-77682.083497
7847.227049,31828.855506,-21762.054695,-73238.729609
7847.229617,48853.592172,18653.189738,-69408.252119
7847.232186,15248.242405,36122.049970,-73698.386908
7847.234755,-23982.672521,-19393.395680,-79214.274493
7847.237323,2812.782580,-21465.972318,-76303.111601
7847.239892,27683.702231,-11547.212695,-72779.072310
7847.242461,10658.965565,5773.606348,-74158.044206
7847.245029,-28868.031738,13175.665768,-78907.836294
7847.247598,-31236.690752,-3552.988522,-80746.465489
7847.250167,-12287.418637,5033.400406,-77988.521696
7847.252735,-21169.889941,-296.082377,-78294.959896
7847.255304,-4589.276840,-14063.912898,-76915.987999
7847.257873,35825.967593,15100.201217,-72472.634111
7847.260441,19985.560434,12435.459826,-74464.482406
7847.263010,13175.665768,888.247130,-76149.892501
7847.265579,15692.365970,23242.466579,-74004.825107
7847.268147,-3701.029710,9326.594869,-74770.920605
7847.270716,2664.741391,-7846.182985,-76915.987999
7847.273285,19393.395680,9622.677246,-74770.920605
7847.275853,2960.823768,3997.112087,-76762.768900
7847.278422,-11547.212695,5329.482782,-77222.426198
7847.280992,-5773.606348,19245.354492,-77222.426198
7847.283562,10955.047942,16580.613101,-74158.044206
7847.286133,-1184.329507,7846.182985,-75843.454302
7847.288703,-3404.947333,-11399.171507,-74464.482406
7847.291273,15100.201217,2072.576638,-75843.454302
7847.293843,15544.324782,16728.654289,-77835.302597
7847.296413,-2960.823768,4737.318029,-80286.808190
7847.298983,7105.977043,13471.748144,-75843.454302
7847.301554,19245.354492,22058.137072,-72625.853210
7847.304124,1332.370696,888.247130,-74311.263306
7847.306694,3997.112087,-4589.276840,-74617.701505
7847.309264,24722.878463,7105.977043,-75230.577904
7847.311834,2220.617826,28423.908173,-75077.358804
7847.314404,-17616.901420,13175.665768,-78141.740796
7847.316975,-34345.555709,-3701.029710,-78448.178995
7847.319545,2516.700203,6217.729913,-74770.920605
7847.322115,5329.482782,-14656.077652,-77069.207099
7847.324685,6661.853478,-7402.059420,-76456.330700
7847.327255,14952.160028,5921.647536,-75690.235202
7847.329825,592.164754,5625.565159,-75996.673402
7847.332395,-19541.436869,16284.530724,-77375.645298
7847.334966,-16136.489536,-4293.194464,-77835.302597
7847.337536,10955.047942,1480.411884,-75383.797003
7847.340106,25315.043216,-2812.782580,-73238.729609
7847.342676,25018.960840,-21021.848753,-77375.645298
7847.345246,-5477.523971,12139.377449,-79061.055394
7847.347816,-10362.883188,11251.130318,-81665.780087
7847.350387,-9030.512492,-4737.318029,-76456.330700
7847.352957,7105.977043,-4737.318029,-72779.072310
7847.355527,2072.576638,-10807.006753,-74311.263306
7847.358097,0.000000,-1480.411884,-75690.235202
7847.360667,1924.535449,4737.318029,-77988.521696
7847.363237,-9918.759623,5625.565159,-78448.178995
7847.365808,-11547.212695,5329.482782,-77069.207099
7847.368378,-19541.436869,-7550.100608,-78294.959896
7847.370948,14211.954086,1184.329507,-74924.139704
7847.373518,32124.937883,9918.759623,-73238.729609
7847.376088,7254.018232,-1480.411884,-75996.673402
7847.378658,5477.523971,-5033.400406,-76915.987999
7847.381229,30792.567187,19837.519246,-72625.853210
7847.383799,13323.706956,15248.242405,-73391.948708
7847.386369,-4293.194464,-14656.077652,-77682.083497
7847.388940,10658.965565,8290.306550,-75537.016103
7847.391510,7402.059420,11695.253884,-76915.987999
7847.394080,-12139.377449,1628.453072,-77835.302597
7847.396651,1776.494261,9030.512492,-78141.740796
7847.399221,31680.814318,11991.336260,-71859.757712
7847.401792,11399.171507,10510.924376,-73238.729609
7847.404362,8290.306550,-296.082377,-74004.825107
7847.406932,22650.301825,9918.759623,-78294.959896
7847.409503,13915.871710,19985.560434,-79061.055394
7847.412073,7105.977043,12731.542202,-78601.398095
7847.414644,6365.771101,-1332.370696,-74924.139704
7847.417214,29608.237680,2072.576638,-71706.538613
7847.419784,22946.384202,17172.777854,-72012.976812
7847.422355,-14656.077652,4293.194464,-77682.083497
7847.424925,-3997.112087,-10807.006753,-77222.426198
7847.427496,37454.420665,19541.436869,-72932.291410
7847.430066,11843.295072,9030.512492,-75843.454302
7847.432636,-26351.331535,3849.070898,-78601.398095
7847.435207,-18505.148550,7402.059420,-77375.645298
7847.437777,-11547.212695,-13471.748144,-77988.521696
7847.440348,-2812.782580,-6217.729913,-79061.055394
7847.442918,-3552.988522,-6513.812290,-78601.398095
7847.445488,13027.624579,11991.336260,-74924.139704
7847.448059,15988.448347,14952.160028,-73085.510509
7847.450629,-11547.212695,3849.070898,-77988.521696
7847.453200,-16876.695478,-148.041188,-79367.493593
7847.455770,17616.901420,-10066.800811,-74770.920605
7847.458340,11103.089130,14656.077652,-75077.358804
7847.460911,-10510.924376,32717.102636,-78294.959896
7847.463481,-4589.276840,-12583.501014,-75690.235202
7847.466052,17172.777854,-10807.006753,-73545.167808
7847.468622,25611.125593,12287.418637,-72472.634111
7847.471192,-16580.613101,12583.501014,-74311.263306
7847.473763,-13619.789333,9622.677246,-76915.987999
7847.476333,-33161.226202,-8882.471304,-80593.246390
7847.478903,-3997.112087,4441.235652,-78141.740796
7847.481474,14804.118840,-10955.047942,-75996.673402
7847.484044,14359.995275,10807.006753,-73698.386908
7847.486615,1036.288319,6513.812290,-75996.673402
7847.489186,5625.565159,-2812.782580,-77069.207099
7847.491757,24278.754898,19837.519246,-74004.825107
7847.494327,-296.082377,8290.306550,-75690.235202
7847.496898,-1036.288319,8586.388927,-74617.701505
7847.499469,19689.478057,17912.983796,-73545.167808
7847.502040,-5625.565159,-6069.688724,-79367.493593
7847.504610,-4293.194464,-740.205942,-78754.617194
7847.507181,6661.853478,2220.617826,-77222.426198
7847.509752,15692.365970,23242.466579,-75996.673402
7847.512323,13767.830521,5033.400406,-75843.454302
7847.514894,13027.624579,30200.402434,-74004.825107
7847.517464,-8586.388927,28423.908173,-72625.853210
7847.520035,-22354.219448,-13027.624579,-76609.549800
7847.522606,25463.084405,4293.194464,-76149.892501
7847.525177,30496.484810,27683.702231,-75843.454302
7847.527747,-15692.365970,444.123565,-80440.027290
7847.530318,1776.494261,15248.242405,-74924.139704
7847.532889,22058.137072,8438.347739,-71706.538613
7847.535460,8438.347739,7846.182985,-75383.797003
7847.538030,-3552.988522,-1332.370696,-77835.302597
7847.540601,21317.931130,9918.759623,-75690.235202
7847.543172,15692.365970,15988.448347,-75383.797003
7847.545743,-21317.931130,6069.688724,-77988.521696
7847.548314,-24574.837274,444.123565,-78141.740796
7847.550884,-7550.100608,-13175.665768,-77375.645298
7847.553455,9178.553681,-3701.029710,-75230.577904
7847.556026,12879.583391,2960.823768,-76609.549800
7847.558597,888.247130,4885.359217,-76609.549800
7847.561167,-9770.718434,9770.718434,-76456.330700
7847.563738,-6957.935855,-3997.112087,-77069.207099
7847.566309,9918.759623,4885.359217,-76609.549800
7847.568880,14211.954086,-16136.489536,-76609.549800
7847.571450,16580.613101,3997.112087,-75077.358804
7847.574021,0.000000,12879.583391,-76149.892501
7847.576592,-3404.947333,4441.235652,-76762.768900
7847.579163,1184.329507,-3108.864956,-76456.330700
7847.581734,12731.542202,-10510.924376,-72932.291410
7847.584304,13323.706956,-3404.947333,-72319.415011
7847.586875,-10510.924376,2220.617826,-77988.521696
7847.589446,-23094.425390,-1776.494261,-79980.369991
7847.592018,-3552.988522,444.123565,-77528.864398
7847.594589,7550.100608,-7846.182985,-75077.358804
7847.597160,12139.377449,8882.471304,-74158.044206
7847.599731,1184.329507,9918.759623,-74464.482406
7847.602303,9030.512492,2516.700203,-74924.139704
7847.604874,22650.301825,6661.853478,-74617.701505
7847.607445,17172.777854,17320.819043,-74004.825107
7847.610016,-5181.441594,1628.453072,-75690.235202
7847.612588,10214.842000,15544.324782,-75230.577904
7847.615159,592.164754,17172.777854,-76149.892501
7847.617730,-15396.283594,-2664.741391,-79367.493593
7847.620301,5921.647536,6661.853478,-76149.892501
7847.622873,20429.683999,16580.613101,-71553.319513
7847.625444,-4145.153275,7846.182985,-76303.111601
7847.628015,2960.823768,148.041188,-75230.577904
7847.630586,-3701.029710,10955.047942,-79520.712692
7847.633158,5181.441594,3552.988522,-75383.797003
7847.635729,16284.530724,10214.842000,-76149.892501
7847.638300,9178.553681,10510.924376,-77988.521696
7847.640871,0.000000,20133.601622,-78141.740796
7847.643443,7105.977043,-148.041188,-75077.358804
7847.646014,27683.702231,1480.411884,-70940.443115
7847.648585,18061.024985,17172.777854,-72319.415011
7847.651156,-13027.624579,-3997.112087,-78141.740796
7847.653728,9178.553681,-4737.318029,-77835.302597
7847.656299,32124.937883,13175.665768,-74464.482406
7847.658870,-3849.070898,5477.523971,-75537.016103
7847.661441,-19245.354492,444.123565,-77069.207099
7847.664013,-15396.283594,1184.329507,-76609.549800
7847.666584,-14211.954086,2368.659014,-78141.740796
7847.669155,-6217.729913,-5625.565159,-78294.959896
7847.671726,3404.947333,7254.018232,-75843.454302
7847.674298,18505.148550,9474.636058,-72472.634111
7847.676869,3108.864956,13471.748144,-74770.920605
7847.679440,-11399.171507,-10510.924376,-77528.864398
7847.682012,3404.947333,-5921.647536,-77375.645298
7847.684583,5181.441594,13471.748144,-75843.454302
7847.687154,2368.659014,2812.782580,-78754.617194
7847.689725,3256.906145,4885.359217,-76609.549800
7847.692296,5921.647536,-5181.441594,-75077.358804
7847.694867,1480.411884,1332.370696,-74158.044206
7847.697437,296.082377,3849.070898,-75537.016103
7847.700008,-27387.619854,-7994.224174,-79673.931792
7847.702579,-14656.077652,6513.812290,-79520.712692
7847.705149,17024.736666,-5625.565159,-76609.549800
7847.707720,9326.594869,14804.118840,-73238.729609
7847.710291,-19541.436869,-3256.906145,-77988.521696
7847.712861,9770.718434,4589.276840,-75383.797003
7847.715432,28127.825796,28423.908173,-74004.825107
7847.718003,1924.535449,-1776.494261,-76609.549800
7847.720574,9770.718434,7402.059420,-74158.044206
7847.723144,17764.942608,16136.489536,-73391.948708
7847.725715,2368.659014,-14211.954086,-77069.207099
7847.728286,11843.295072,1332.370696,-78448.178995
7847.730856,16580.613101,8586.388927,-76915.987999
7847.733427,13471.748144,26203.290347,-74311.263306
7847.735998,-9178.553681,18357.107362,-76762.768900
7847.738568,-11843.295072,6661.853478,-77069.207099
7847.741139,8438.347739,-14508.036463,-74158.044206
7847.743710,1776.494261,3552.988522,-76609.549800
7847.746280,-2960.823768,15692.365970,-78141.740796
7847.748851,4441.235652,-1332.370696,-79827.150892
7847.751422,21021.848753,13915.871710,-75843.454302
7847.753992,21614.013506,4589.276840,-74158.044206
7847.756563,17616.901420,11547.212695,-72625.853210
7847.759134,2812.782580,13619.789333,-71246.881314
7847.761705,-8438.347739,5477.523971,-77069.207099
7847.764275,-4737.318029,740.205942,-79367.493593
7847.766846,14063.912898,6513.812290,-76303.111601
7847.769417,1332.370696,888.247130,-75383.797003
7847.771987,4737.318029,-6661.853478,-74311.263306
7847.774558,-444.123565,6513.812290,-74924.139704
7847.777129,-23242.466579,-7402.059420,-79827.150892
7847.779699,-9030.512492,-5181.441594,-79214.274493
7847.782270,8882.471304,13323.706956,-75537.016103
7847.784841,3997.112087,17024.736666,-75077.358804
7847.787411,-14656.077652,6661.853478,-77375.645298
7847.789982,888.247130,-18801.230927,-74158.044206
7847.792553,29164.114115,-23834.631332,-78601.398095
7847.795124,-8290.306550,8438.347739,-79520.712692
7847.797694,1332.370696,11991.336260,-78294.959896
7847.800265,-4589.276840,1332.370696,-77528.864398
7847.802836,-888.247130,-20429.683999,-74004.825107
7847.805407,14804.118840,-10214.842000,-72625.853210
7847.807977,2812.782580,14804.118840,-75690.235202
7847.810548,-29016.072926,-2516.700203,-79980.369991
7847.813119,-11991.336260,-2664.741391,-77988.521696
7847.815689,21465.972318,-10066.800811,-75690.235202
7847.818260,16136.489536,9770.718434,-74924.139704
7847.820831,-12139.377449,3108.864956,-77528.864398
7847.823402,3404.947333,2220.617826,-75843.454302
7847.825972,33753.390955,15544.324782,-72625.853210
7847.828543,19393.395680,12435.459826,-74158.044206
7847.831114,-13471.748144,-4441.235652,-77222.426198
7847.833685,6957.935855,16136.489536,-74464.482406
7847.836255,-296.082377,11991.336260,-77528.864398
7847.838826,-5477.523971,-2516.700203,-78601.398095
7847.841397,16284.530724,5181.441594,-75843.454302
7847.843968,22798.343014,7846.182985,-72319.415011
7847.846538,15248.242405,-3108.864956,-75077.358804
7847.849109,14063.912898,12435.459826,-73851.606007
7847.851680,10214.842000,-9770.718434,-72625.853210
7847.854251,9178.553681,4145.153275,-75383.797003
7847.856821,13471.748144,15100.201217,-77835.302597
7847.859392,10510.924376,7698.141797,-79827.150892
7847.861963,23686.590144,9178.553681,-75383.797003
7847.864534,15988.448347,5625.565159,-73085.510509
7847.867104,-3701.029710,1480.411884,-73698.386908
7847.869675,6957.935855,-296.082377,-74924.139704
7847.872246,19097.313304,25907.207970,-75996.673402
7847.874816,-15840.407159,10066.800811,-79980.369991
7847.877387,-16136.489536,-8438.347739,-78448.178995
7847.879958,12139.377449,6069.688724,-72472.634111
7847.882529,6809.894666,-11103.089130,-76303.111601
7847.885099,1332.370696,-5921.647536,-76149.892501
7847.887670,1184.329507,5773.606348,-77069.207099
7847.890241,6661.853478,4885.359217,-76609.549800
7847.892812,-5773.606348,-2664.741391,-75996.673402
7847.895382,7105.977043,-7550.100608,-75077.358804
7847.897952,20725.766376,1036.288319,-71093.662214
7847.900522,-6069.688724,-8586.388927,-78141.740796
7847.903092,2368.659014,-3552.988522,-77069.207099
7847.905662,9326.594869,7698.141797,-78448.178995
7847.908232,14656.077652,10362.883188,-76609.549800
7847.910801,740.205942,-444.123565,-75077.358804
7847.913371,592.164754,1776.494261,-73851.606007
7847.915941,-9622.677246,5921.647536,-74464.482406
7847.918511,-16876.695478,-7698.141797,-77988.521696
7847.921081,-14952.160028,1628.453072,-79980.369991
7847.923651,8290.306550,-7105.977043,-77375.645298
7847.926220,12287.418637,16136.489536,-74924.139704
7847.928790,-19837.519246,1184.329507,-77375.645298
7847.931360,-4589.276840,-1036.288319,-77069.207099
7847.933930,25018.960840,25611.125593,-73698.386908
7847.936500,18357.107362,6957.935855,-75537.016103
7847.939070,17172.777854,4737.318029,-72932.291410
7847.941639,12879.583391,16432.571912,-73698.386908
7847.944209,3552.988522,-14656.077652,-76915.987999
7847.946779,13619.789333,7105.977043,-75843.454302
7847.949349,6365.771101,16432.571912,-75996.673402
7847.951919,-14211.954086,148.041188,-78294.959896
7847.954489,-25907.207970,16136.489536,-79367.493593
7847.957058,-8142.265362,10066.800811,-77835.302597
7847.959628,3256.906145,16580.613101,-75383.797003
7847.962198,-3849.070898,6957.935855,-74464.482406
7847.964768,5921.647536,5921.647536,-76303.111601
7847.967338,24426.796086,6365.771101,-78601.398095
7847.969908,29164.114115,17024.736666,-77375.645298
7847.972477,-5773.606348,10214.842000,-76456.330700
7847.975047,-10214.842000,-2368.659014,-73391.948708
7847.977617,25759.166782,6069.688724,-71706.538613
7847.980187,14804.118840,26203.290347,-74924.139704
7847.982757,-25167.002028,-3256.906145,-81512.560987
7847.985327,-29016.072926,-4885.359217,-78907.836294
7847.987896,740.205942,6513.812290,-75077.358804
7847.990466,3256.906145,-8734.430116,-75843.454302
7847.993036,-1628.453072,-8290.306550,-76762.768900
7847.995606,7550.100608,2812.782580,-75996.673402
7847.998176,4737.318029,4293.194464,-76456.330700
7848.000744,-3552.988522,592.164754,-77528.864398
7848.003313,10214.842000,2960.823768,-74924.139704
7848.005883,3108.864956,17912.983796,-74617.701505
7848.008452,-23982.672521,10955.047942,-76609.549800
7848.011022,-17616.901420,-5477.523971,-79827.150892
7848.013591,-3701.029710,6809.894666,-79520.712692
7848.016161,888.247130,5181.441594,-77528.864398
7848.018730,-7254.018232,-12287.418637,-76609.549800
7848.021300,-2220.617826,-9030.512492,-72779.072310
7848.023869,5033.400406,8290.306550,-74924.139704
7848.026438,-11695.253884,5477.523971,-78141.740796
7848.029008,-15692.365970,-6957.935855,-78754.617194
7848.031577,8586.388927,-10066.800811,-77375.645298
7848.034147,21910.095883,11991.336260,-73851.606007
7848.036716,-2516.700203,1332.370696,-76456.330700
7848.039286,-1332.370696,4589.276840,-76456.330700
7848.041855,18949.272115,23686.590144,-73851.606007
7848.044425,1332.370696,7402.059420,-75996.673402
7848.046994,5033.400406,4293.194464,-75690.235202
7848.049564,20873.807564,12879.583391,-74617.701505
7848.052133,-2812.782580,2960.823768,-77222.426198
7848.054702,3552.988522,-3404.947333,-76456.330700
7848.057272,21910.095883,13471.748144,-75230.577904
7848.059841,16136.489536,9178.553681,-73085.510509
7848.062411,10066.800811,-3108.864956,-76303.111601
7848.064980,11695.253884,22058.137072,-73238.729609
7848.067550,-13619.789333,1628.453072,-77528.864398
7848.070119,-4293.194464,148.041188,-74924.139704
7848.072689,25315.043216,11843.295072,-74158.044206
7848.075258,22502.260637,9030.512492,-77222.426198
7848.077828,5625.565159,5033.400406,-80133.589091
7848.080397,14359.995275,9474.636058,-74004.825107
7848.082967,21614.013506,17468.860231,-68795.375720
7848.085536,-3701.029710,-4145.153275,-75690.235202
7848.088105,7105.977043,-1332.370696,-78141.740796
7848.090675,25315.043216,10066.800811,-76456.330700
7848.093244,3849.070898,2516.700203,-75843.454302
7848.095814,-11695.253884,3552.988522,-75843.454302
7848.098383,-23390.507767,-3404.947333,-77222.426198
7848.100953,-19541.436869,-7994.224174,-78141.740796
7848.103521,6217.729913,-4293.194464,-77069.207099
7848.106089,11547.212695,10658.965565,-76762.768900
7848.108657,888.247130,-3108.864956,-76303.111601
7848.111225,10955.047942,-14359.995275,-75077.358804
7848.113793,11843.295072,10214.842000,-73545.167808
7848.116361,888.247130,14804.118840,-76149.892501
7848.118929,-13175.665768,13767.830521,-79367.493593
7848.121497,9622.677246,1036.288319,-75230.577904
7848.124065,11399.171507,-12287.418637,-75077.358804
7848.126633,14952.160028,592.164754,-73391.948708
7848.129201,-10658.965565,10066.800811,-73698.386908
7848.131769,-30348.443622,-6957.935855,-77988.521696
7848.134337,-2516.700203,-2516.700203,-77069.207099
7848.136905,14063.912898,16580.613101,-77835.302597
7848.139473,-19985.560434,9178.553681,-79520.712692
7848.142041,-24130.713709,-10066.800811,-78601.398095
7848.144609,25759.166782,10214.842000,-72166.195912
7848.147177,19097.313304,29016.072926,-74311.263306
7848.149745,5477.523971,2664.741391,-76456.330700
7848.152313,18061.024985,3997.112087,-74770.920605
7848.154881,23686.590144,16580.613101,-73238.729609
7848.157449,9622.677246,-7698.141797,-77069.207099
7848.160017,8142.265362,11103.089130,-75996.673402
7848.162585,-7994.224174,16136.489536,-76609.549800
7848.165153,-11843.295072,-8290.306550,-77069.207099
7848.167721,22354.219448,3404.947333,-76149.892501
7848.170289,34937.720462,4737.318029,-72472.634111
7848.172857,16432.571912,-1776.494261,-72932.291410
7848.175425,12583.501014,6957.935855,-72472.634111
7848.177993,11399.171507,12583.501014,-74770.920605
7848.180561,2072.576638,16580.613101,-80899.684589
7848.183129,12879.583391,-3552.988522,-78601.398095
7848.185697,27979.784608,8586.388927,-72472.634111
7848.188265,13323.706956,16728.654289,-70787.224015
7848.190833,-5921.647536,-9474.636058,-74464.482406
7848.193401,25315.043216,7254.018232,-74158.044206
7848.195969,14804.118840,13027.624579,-76762.768900
7848.198537,-20281.642811,1332.370696,-79520.712692
7848.201105,-17024.736666,7550.100608,-77375.645298
7848.203673,-11843.295072,-7105.977043,-77222.426198
7848.206240,-8142.265362,-13175.665768,-75537.016103
7848.208806,9030.512492,740.205942,-76762.768900
7848.211373,9918.759623,10214.842000,-77069.207099
7848.213940,3849.070898,-1628.453072,-76609.549800
7848.216507,11991.336260,-5033.400406,-76149.892501
7848.219074,30348.443622,-8586.388927,-71093.662214
7848.221641,14804.118840,1480.411884,-73085.510509
7848.224208,-10658.965565,14804.118840,-75996.673402
7848.226775,-15396.283594,-7550.100608,-82431.875585
7848.229342,-444.123565,-25315.043216,-79673.931792
7848.231909,16580.613101,1332.370696,-72625.853210
7848.234476,-4293.194464,11399.171507,-72625.853210
7848.237043,-36122.049970,740.205942,-77069.207099
7848.239609,-6513.812290,-2368.659014,-77375.645298
7848.242176,20873.807564,8586.388927,-77222.426198
7848.244743,22354.219448,16876.695478,-75537.016103
7848.247310,-22650.301825,-5033.400406,-78294.959896
7848.249877,-5181.441594,6365.771101,-75230.577904
7848.252444,31384.731941,26055.249158,-71706.538613
7848.255011,12583.501014,3552.988522,-74617.701505
7848.257578,8290.306550,4885.359217,-74924.139704
7848.260145,16876.695478,12879.583391,-74004.825107
7848.262712,14508.036463,-7254.018232,-75690.235202
7848.265279,11843.295072,10362.883188,-75996.673402
7848.267846,-8586.388927,12287.418637,-76762.768900
7848.270413,-19097.313304,10658.965565,-80746.465489
7848.272979,9030.512492,28719.990550,-75383.797003
7848.275546,28868.031738,13175.665768,-73851.606007
7848.278113,6661.853478,7402.059420,-71706.538613
7848.280680,-1480.411884,2664.741391,-72779.072310
7848.283247,20281.642811,13619.789333,-74770.920605
7848.285814,23242.466579,30348.443622,-77988.521696
7848.288381,-9918.759623,-740.205942,-81206.122788
7848.290948,-5329.482782,740.205942,-75996.673402
7848.293515,26351.331535,13471.748144,-70174.347617
7848.296082,7550.100608,7402.059420,-72166.195912
7848.298649,-1332.370696,-3849.070898,-77528.864398
7848.301216,14804.118840,6809.894666,-77528.864398
7848.303782,8882.471304,6957.935855,-77222.426198
7848.306349,-888.247130,-9770.718434,-76915.987999
7848.308916,-4737.318029,4293.194464,-75077.358804
7848.311482,-12435.459826,-4145.153275,-76303.111601
7848.314048,-5773.606348,296.082377,-77682.083497
7848.316615,1480.411884,13619.789333,-76456.330700
7848.319181,-6661.853478,-5033.400406,-76762.768900
7848.321747,-2368.659014,-6661.853478,-79061.055394
7848.324313,24722.878463,16580.613101,-74770.920605
7848.326880,-11991.336260,30940.608376,-73238.729609
7848.329446,-49001.633360,-2812.782580,-81359.341888
7848.332012,-29312.155303,-17172.777854,-84576.942979
7848.334579,21614.013506,24426.796086,-75537.016103
7848.337145,-2812.782580,740.205942,-73391.948708
7848.339711,-42931.944636,8142.265362,-77988.521696
7848.342278,-35825.967593,-9178.553681,-77835.302597
7848.344844,13767.830521,5921.647536,-74924.139704
7848.347410,-4293.194464,5773.606348,-80593.246390
7848.349976,-7550.100608,-9770.718434,-80133.589091
7848.352543,26647.413912,9326.594869,-73391.948708
7848.355109,28127.825796,4589.276840,-71553.319513
7848.357675,19245.354492,7402.059420,-72932.291410
7848.360242,11399.171507,17912.983796,-74311.263306
7848.362808,-1036.288319,4885.359217,-76762.768900
7848.365374,7402.059420,12287.418637,-75843.454302
7848.367941,-9474.636058,-1036.288319,-78754.617194
7848.370507,-16136.489536,-3256.906145,-77682.083497
7848.373073,10066.800811,-7550.100608,-76762.768900
7848.375639,37750.503042,17172.777854,-72932.291410
7848.378206,10510.924376,7550.100608,-75690.235202
7848.380772,-1924.535449,-5329.482782,-74311.263306
7848.383338,-4145.153275,5181.441594,-75230.577904
7848.385905,12583.501014,22798.343014,-74158.044206
7848.388471,-3552.988522,21465.972318,-78754.617194
7848.391036,-5477.523971,-3404.947333,-81818.999186
7848.393601,30052.361245,9178.553681,-75537.016103
7848.396166,26795.455100,15248.242405,-71246.881314
7848.398732,-7105.977043,-8438.347739,-73698.386908
7848.401297,15988.448347,7698.141797,-72932.291410
7848.403862,21614.013506,8882.471304,-75537.016103
7848.406427,12139.377449,6217.729913,-76915.987999
7848.408992,-10658.965565,-740.205942,-77988.521696
7848.411558,-30200.402434,-296.082377,-78141.740796
7848.414123,-20577.725188,-4737.318029,-76762.768900
7848.416688,4885.359217,-2220.617826,-76456.330700
7848.419253,7402.059420,5625.565159,-76456.330700
7848.421818,6957.935855,-4293.194464,-76762.768900
7848.424384,17172.777854,5773.606348,-75690.235202
7848.426949,12435.459826,-5921.647536,-73698.386908
7848.429514,1480.411884,-740.205942,-73698.386908
7848.432079,-12139.377449,15100.201217,-78294.959896
7848.434644,17024.736666,-14359.995275,-76149.892501
7848.437209,11103.089130,4589.276840,-76456.330700
7848.439775,-7105.977043,4441.235652,-77069.207099
7848.442340,-19985.560434,-6069.688724,-75383.797003
7848.444905,-5181.441594,-1480.411884,-73698.386908
7848.447470,1332.370696,13027.624579,-76149.892501
7848.450035,-21021.848753,-3108.864956,-81665.780087
7848.452601,740.205942,-7105.977043,-79367.493593
7848.455166,28275.866984,14952.160028,-73851.606007
7848.457731,13175.665768,1924.535449,-73391.948708
7848.460296,11251.130318,9178.553681,-72779.072310
7848.462861,16728.654289,15396.283594,-73698.386908
7848.465426,7402.059420,3849.070898,-75843.454302
7848.467992,3997.112087,12139.377449,-77069.207099
7848.470557,-6957.935855,10807.006753,-78141.740796
7848.473122,-3552.988522,1332.370696,-77069.207099
7848.475687,16580.613101,12731.542202,-73391.948708
7848.478252,-8142.265362,25167.002028,-77222.426198
7848.480818,-18209.066173,9918.759623,-80899.684589
7848.483383,7698.141797,14211.954086,-76456.330700
7848.485948,-2516.700203,9770.718434,-74311.263306
7848.488513,-1184.329507,3404.947333,-74924.139704
7848.491078,10510.924376,23982.672521,-77222.426198
7848.493643,7550.100608,4441.235652,-80440.027290
7848.496207,11991.336260,7254.018232,-77375.645298
7848.498771,7994.224174,5625.565159,-74004.825107
7848.501336,8734.430116,10955.047942,-71553.319513
7848.503900,1628.453072,-1480.411884,-75537.016103
7848.506464,11547.212695,7402.059420,-76762.768900
7848.509028,3552.988522,4145.153275,-77528.864398
7848.511593,740.205942,-15100.201217,-77375.645298
7848.514157,-8882.471304,5181.441594,-76303.111601
7848.516721,-23094.425390,-148.041188,-77375.645298
7848.519286,-8142.265362,-4885.359217,-77528.864398
7848.521850,8882.471304,10955.047942,-75537.016103
7848.524414,7698.141797,-4885.359217,-76762.768900
7848.526979,6809.894666,18357.107362,-77375.645298
7848.529543,-2368.659014,18949.272115,-75077.358804
7848.532107,-3256.906145,18505.148550,-75230.577904
7848.534671,-14063.912898,16876.695478,-77988.521696
7848.537236,2368.659014,6513.812290,-77069.207099
7848.539800,2516.700203,-11103.089130,-76303.111601
7848.542364,6809.894666,-6513.812290,-74158.044206
7848.544929,-3108.864956,9918.759623,-74464.482406
7848.547493,-24130.713709,-3701.029710,-77375.645298
7848.550057,-6957.935855,3997.112087,-77375.645298
7848.552622,-3849.070898,16876.695478,-77528.864398
7848.555186,-23390.507767,-6957.935855,-80746.465489
7848.557750,9030.512492,4441.235652,-76456.330700
7848.560315,28423.908173,17320.819043,-72166.195912
7848.562879,22502.260637,9474.636058,-72166.195912
7848.565443,23538.548956,6661.853478,-73391.948708
7848.568007,15100.201217,9918.759623,-74617.701505
7848.570572,10807.006753,-3701.029710,-77528.864398
7848.573136,17616.901420,17616.901420,-74924.139704
7848.575700,-5921.647536,5921.647536,-77222.426198
7848.578265,-14359.995275,2220.617826,-78448.178995
7848.580829,10510.924376,7994.224174,-74311.263306
7848.583393,30200.402434,9622.677246,-73851.606007
7848.585958,20577.725188,28423.908173,-71093.662214
7848.588522,-592.164754,4589.276840,-74158.044206
7848.591086,6365.771101,1924.535449,-74311.263306
7848.593650,23094.425390,4145.153275,-78141.740796
7848.596214,28868.031738,9326.594869,-75383.797003
7848.598778,18357.107362,11103.089130,-72625.853210
7848.601342,148.041188,-4293.194464,-73851.606007
7848.603906,21021.848753,9918.759623,-72472.634111
7848.606469,12583.501014,6513.812290,-76456.330700
7848.609033,-17764.942608,3552.988522,-78907.836294
7848.611597,-22206.178260,11843.295072,-79367.493593
7848.614161,-20429.683999,-8438.347739,-78601.398095
7848.616724,-1776.494261,-9178.553681,-76149.892501
7848.619288,14359.995275,1924.535449,-75230.577904
7848.621852,6513.812290,5625.565159,-75383.797003
7848.624416,7254.018232,8734.430116,-75843.454302
7848.626979,2220.617826,2368.659014,-75843.454302
7848.629543,1776.494261,-21317.931130,-76149.892501
7848.632107,23390.507767,-19837.519246,-74617.701505
7848.634671,34197.514520,20725.766376,-71246.881314
7848.637235,9474.636058,19985.560434,-75537.016103
7848.639798,6217.729913,-8290.306550,-75230.577904
7848.642362,12583.501014,-19985.560434,-74311.263306
7848.644926,4441.235652,11399.171507,-74464.482406
7848.647490,-29312.155303,3108.864956,-76303.111601
7848.650053,-24278.754898,6217.729913,-78448.178995
7848.652617,-12731.542202,2220.617826,-79214.274493
7848.655181,7105.977043,-13323.706956,-79214.274493
7848.657745,19245.354492,6513.812290,-75383.797003
7848.660309,22354.219448,18209.066173,-73238.729609
7848.662872,15100.201217,10510.924376,-73085.510509
7848.665436,20577.725188,14804.118840,-72625.853210
7848.668000,10510.924376,4441.235652,-74770.920605
7848.670564,3849.070898,8734.430116,-76762.768900
7848.673127,-3849.070898,17172.777854,-77375.645298
7848.675691,-888.247130,296.082377,-76915.987999
7848.678255,11251.130318,7550.100608,-77375.645298
7848.680819,-148.041188,34345.555709,-74924.139704
7848.683382,-21465.972318,-11843.295072,-76609.549800
7848.685946,11991.336260,-3404.947333,-75843.454302
7848.688510,4441.235652,22502.260637,-74617.701505
7848.691074,23834.631332,31532.773129,-73851.606007
7848.693638,-5477.523971,4885.359217,-79673.931792
7848.696201,-2516.700203,6661.853478,-79827.150892
7848.698764,25611.125593,18653.189738,-74158.044206
7848.701326,16728.654289,-7105.977043,-73391.948708
7848.703889,17912.983796,12287.418637,-71246.881314
7848.706452,3552.988522,8734.430116,-75690.235202
7848.709014,-17024.736666,4589.276840,-80133.589091
7848.711577,-16432.571912,7698.141797,-79214.274493
7848.714139,-16876.695478,-14211.954086,-77835.302597
7848.716702,3108.864956,-5773.606348,-74924.139704
7848.719265,13471.748144,7994.224174,-75690.235202
7848.721827,12879.583391,10510.924376,-75383.797003
7848.724390,2812.782580,-1184.329507,-77375.645298
7848.726952,-296.082377,296.082377,-75230.577904
7848.729515,3849.070898,1036.288319,-75383.797003
7848.732078,9918.759623,2812.782580,-75383.797003
7848.734640,148.041188,2812.782580,-76915.987999
7848.737203,1628.453072,-2664.741391,-77835.302597
7848.739765,7550.100608,-7846.182985,-77222.426198
7848.742328,-1036.288319,-1628.453072,-75690.235202
7848.744890,-8586.388927,3108.864956,-74311.263306
7848.747453,-14656.077652,2960.823768,-74924.139704
7848.750016,-6217.729913,6957.935855,-77069.207099
7848.752578,-15692.365970,11103.089130,-79214.274493
7848.755141,-21910.095883,1628.453072,-81206.122788
7848.757703,-5477.523971,1776.494261,-78294.959896
7848.760266,22354.219448,27683.702231,-72012.976812
7848.762829,18357.107362,4737.318029,-72779.072310
7848.765391,19837.519246,6069.688724,-72779.072310
7848.767954,19097.313304,12139.377449,-74004.825107
7848.770516,10362.883188,7254.018232,-76762.768900
7848.773079,7254.018232,15396.283594,-74617.701505
7848.775641,5329.482782,-7105.977043,-76915.987999
7848.778204,4737.318029,9622.677246,-78141.740796
7848.780767,0.000000,11843.295072,-75383.797003
7848.783329,10214.842000,-7254.018232,-75383.797003
7848.785892,18209.066173,-1184.329507,-72625.853210
7848.788454,7254.018232,7550.100608,-77222.426198
7848.791017,21317.931130,16432.571912,-76762.768900
7848.793580,16728.654289,11547.212695,-77375.645298
7848.796142,1332.370696,3849.070898,-77375.645298
7848.798705,9770.718434,10510.924376,-73851.606007
7848.801267,10807.006753,5181.441594,-72319.415011
7848.803829,11251.130318,-6069.688724,-74617.701505
7848.806391,20281.642811,6069.688724,-75690.235202
7848.808953,3108.864956,2664.741391,-77069.207099
7848.811515,-4145.153275,-1480.411884,-77375.645298
7848.814077,-21021.848753,3256.906145,-77222.426198
7848.816639,-29904.320057,-7698.141797,-78448.178995
7848.819201,-16284.530724,-4737.318029,-79061.055394
7848.821763,4737.318029,12139.377449,-76149.892501
7848.824325,3404.947333,-4589.276840,-75690.235202
7848.826887,-1036.288319,592.164754,-75690.235202
7848.829449,2664.741391,444.123565,-75230.577904
7848.832011,4441.235652,-3404.947333,-76915.987999
7848.834573,592.164754,12435.459826,-75537.016103
7848.837135,3701.029710,740.205942,-78601.398095
7848.839697,1480.411884,-888.247130,-76915.987999
7848.842259,-3404.947333,-4145.153275,-74158.044206
7848.844821,-10362.883188,740.205942,-73698.386908
7848.847383,-19245.354492,5033.400406,-76303.111601
7848.849945,-29756.278868,-4441.235652,-81665.780087
7848.852507,-2220.617826,-1332.370696,-79827.150892
7848.855069,33161.226202,13619.789333,-75230.577904
7848.857631,11103.089130,3552.988522,-74311.263306
7848.860193,10807.006753,10362.883188,-72625.853210
7848.862755,21021.848753,17912.983796,-72779.072310
7848.865318,7698.141797,8438.347739,-74617.701505
7848.867880,5033.400406,888.247130,-76762.768900
7848.870442,-6957.935855,-6809.894666,-77682.083497
7848.873004,6809.894666,9918.759623,-78754.617194
7848.875566,-7550.100608,26647.413912,-80133.589091
7848.878128,-39230.914926,23390.507767,-79214.274493
7848.880690,-3701.029710,-21021.848753,-74770.920605
7848.883252,-24722.878463,-16136.489536,-81359.341888
7848.885814,-4885.359217,8290.306550,-78601.398095
7848.888376,21169.889941,34197.514520,-74770.920605
7848.890938,3552.988522,7550.100608,-77682.083497
7848.893500,5625.565159,3552.988522,-77682.083497
7848.896062,26795.455100,14656.077652,-75383.797003
7848.898624,6809.894666,-6365.771101,-75383.797003
7848.901186,18357.107362,7402.059420,-70940.443115
7848.903747,21465.972318,8142.265362,-72779.072310
7848.906308,-9030.512492,3552.988522,-80593.246390
7848.908869,-27979.784608,8142.265362,-80440.027290
7848.911430,-30348.443622,-10214.842000,-79214.274493
7848.913991,-37898.544230,-7254.018232,-78754.617194
7848.916552,-2072.576638,2072.576638,-77069.207099
7848.919113,6217.729913,10214.842000,-77375.645298
7848.921673,-1036.288319,-2664.741391,-76456.330700
7848.924234,-1628.453072,1036.288319,-76456.330700
7848.926795,6365.771101,7994.224174,-74464.482406
7848.929356,5921.647536,-5033.400406,-76915.987999
7848.931917,6069.688724,2072.576638,-73851.606007
7848.934478,5625.565159,4589.276840,-78141.740796
7848.937039,3404.947333,4885.359217,-77528.864398
7848.939600,-7105.977043,-888.247130,-75077.358804
7848.942161,-8882.471304,-6069.688724,-72625.853210
7848.944722,-10510.924376,7994.224174,-74617.701505
7848.947283,-23538.548956,-8734.430116,-81206.122788
7848.949844,2072.576638,2072.576638,-78907.836294
7848.952405,28719.990550,14508.036463,-75996.673402
7848.954966,11547.212695,0.000000,-74004.825107
7848.957527,13471.748144,8438.347739,-72319.415011
7848.960088,19985.560434,14952.160028,-72932.291410
7848.962649,7254.018232,4441.235652,-75077.358804
7848.965210,8586.388927,2960.823768,-75230.577904
7848.967771,3701.029710,-6513.812290,-76609.549800
7848.970331,10807.006753,15692.365970,-77222.426198
7848.972892,2072.576638,1776.494261,-77069.207099
7848.975453,740.205942,-7105.977043,-76915.987999
7848.978014,10066.800811,3404.947333,-74770.920605
7848.980575,25018.960840,31532.773129,-69867.909418
7848.983136,4293.194464,-148.041188,-74311.263306
7848.985697,18949.272115,12583.501014,-75690.235202
7848.988258,16432.571912,16432.571912,-78754.617194
7848.990819,4885.359217,3997.112087,-78294.959896
7848.993380,4293.194464,9178.553681,-75230.577904
7848.995941,6069.688724,-1184.329507,-73238.729609
7848.998502,27387.619854,-1480.411884,-71859.757712
7849.001063,26203.290347,10807.006753,-74770.920605
7849.003624,-10510.924376,3997.112087,-78448.178995
7849.006183,-20133.601622,4589.276840,-78907.836294
7849.008744,-18505.148550,3997.112087,-76915.987999
7849.011304,-29460.196492,-3256.906145,-78601.398095
7849.013865,-9770.718434,-2664.741391,-78141.740796
7849.016425,1480.411884,7698.141797,-78448.178995
7849.018986,1184.329507,-1332.370696,-75690.235202
7849.021546,-8290.306550,14804.118840,-77835.302597
7849.024106,-10362.883188,7254.018232,-75843.454302
7849.026667,-15100.201217,6809.894666,-78754.617194
7849.029227,-7402.059420,3256.906145,-77682.083497
7849.031788,-1776.494261,-7402.059420,-80133.589091
7849.034348,7402.059420,9030.512492,-75230.577904
7849.036908,-9326.594869,-8882.471304,-73851.606007
7849.039469,-15692.365970,-2664.741391,-74158.044206
7849.042029,-5329.482782,3404.947333,-76609.549800
7849.044590,-15396.283594,12731.542202,-79980.369991
7849.047150,-19985.560434,-7698.141797,-81206.122788
7849.049710,20429.683999,5773.606348,-75230.577904
7849.052271,18653.189738,17320.819043,-73698.386908
7849.054831,12731.542202,4293.194464,-72779.072310
7849.057392,24870.919651,12435.459826,-71553.319513
7849.059952,18653.189738,12435.459826,-73391.948708
7849.062512,2072.576638,4589.276840,-76762.768900
7849.065073,-13175.665768,-5477.523971,-79214.274493
7849.067633,10214.842000,7402.059420,-78141.740796
7849.070194,16876.695478,3256.906145,-75690.235202
7849.072754,16136.489536,14952.160028,-73851.606007
7849.075315,-4293.194464,22206.178260,-76303.111601
7849.077875,-1924.535449,20281.642811,-73085.510509
7849.080435,2072.576638,-148.041188,-72932.291410
7849.082996,15988.448347,5033.400406,-77528.864398
7849.085556,24574.837274,14063.912898,-79520.712692
7849.088117,12287.418637,12879.583391,-77222.426198
7849.090677,4145.153275,-2516.700203,-74617.701505
7849.093237,10807.006753,16580.613101,-72319.415011
7849.095798,-1332.370696,7402.059420,-75843.454302
7849.098358,-7994.224174,296.082377,-77375.645298
7849.100919,2072.576638,3552.988522,-76303.111601
7849.103479,12435.459826,-17024.736666,-76762.768900
7849.106039,6809.894666,-4737.318029,-75690.235202
7849.108599,10066.800811,3108.864956,-75230.577904
7849.111158,-296.082377,-2220.617826,-76149.892501
7849.113718,14952.160028,3552.988522,-75690.235202
7849.116277,-2664.741391,13619.789333,-76609.549800
7849.118836,-10510.924376,11843.295072,-74311.263306
7849.121396,-4293.194464,1924.535449,-76609.549800
7849.123955,-1628.453072,6365.771101,-79061.055394
7849.126514,1036.288319,-2220.617826,-80440.027290
7849.129074,-2072.576638,-9770.718434,-78294.959896
7849.131633,-4145.153275,2368.659014,-73851.606007
7849.134192,-12731.542202,4737.318029,-73238.729609
7849.136752,-16876.695478,7846.182985,-75996.673402
7849.139311,-17616.901420,-7994.224174,-80133.589091
7849.141871,17024.736666,444.123565,-77375.645298
7849.144430,19985.560434,17172.777854,-76456.330700
7849.146989,-4737.318029,1036.288319,-77375.645298
7849.149549,12879.583391,11547.212695,-72472.634111
7849.152108,24278.754898,16728.654289,-71246.881314
7849.154667,3701.029710,3108.864956,-74617.701505
7849.157227,3997.112087,9622.677246,-77222.426198
7849.159786,3849.070898,0.000000,-76915.987999
7849.162345,15544.324782,19245.354492,-75383.797003
7849.164905,7105.977043,5033.400406,-75537.016103
7849.167464,148.041188,-8290.306550,-77375.645298
7849.170024,6809.894666,444.123565,-74311.263306
7849.172583,32717.102636,19097.313304,-68182.499322
7849.175142,1924.535449,11843.295072,-73545.167808
7849.177702,-1628.453072,-6957.935855,-80286.808190
7849.180261,33161.226202,16876.695478,-78294.959896
7849.182820,24426.796086,16876.695478,-75537.016103
7849.185380,-4145.153275,-1924.535449,-75077.358804
7849.187939,-5477.523971,11695.253884,-73238.729609
7849.190498,12139.377449,-1036.288319,-74770.920605
7849.193058,19985.560434,888.247130,-75537.016103
7849.195617,5181.441594,740.205942,-76762.768900
7849.198177,9622.677246,-11695.253884,-76915.987999
7849.200736,12435.459826,7846.182985,-74311.263306
7849.203295,-8142.265362,-888.247130,-77222.426198
7849.205855,-12879.583391,-7550.100608,-78141.740796
7849.208414,16136.489536,3404.947333,-75077.358804
7849.210973,10510.924376,-3552.988522,-75383.797003
7849.213531,1332.370696,-6069.688724,-74004.825107
7849.216090,8882.471304,-10214.842000,-75383.797003
7849.218649,16728.654289,-2220.617826,-73698.386908
7849.221208,8290.306550,9474.636058,-79673.931792
7849.223766,1924.535449,740.205942,-77528.864398
7849.226325,-4589.276840,-11991.336260,-74924.139704
7849.228884,-3849.070898,2516.700203,-73085.510509
7849.231442,-3108.864956,3701.029710,-73851.606007
7849.234001,-13175.665768,-10658.965565,-78601.398095
7849.236560,7550.100608,5773.606348,-77988.521696
7849.239119,10214.842000,10510.924376,-78141.740796
7849.241677,2812.782580,-4441.235652,-76303.111601
7849.244236,25463.084405,10510.924376,-71093.662214
7849.246795,21465.972318,16728.654289,-72319.415011
7849.249354,3404.947333,1776.494261,-74004.825107
7849.251912,10066.800811,6365.771101,-76303.111601
7849.254471,5773.606348,8882.471304,-77682.083497
7849.257030,11991.336260,21317.931130,-73698.386908
7849.259588,9474.636058,-2664.741391,-79367.493593
7849.262147,21021.848753,10362.883188,-74311.263306
7849.264706,20281.642811,7105.977043,-71400.100414
7849.267265,10362.883188,10214.842000,-71859.757712
7849.269823,-592.164754,19689.478057,-74924.139704
7849.272382,-2812.782580,9770.718434,-79673.931792
7849.274941,27535.661042,1184.329507,-78294.959896
7849.277499,30940.608376,13767.830521,-74311.263306
7849.280058,5773.606348,3404.947333,-74158.044206
7849.282617,-6217.729913,17616.901420,-73545.167808
7849.285176,-6957.935855,5625.565159,-76609.549800
7849.287734,6661.853478,-3404.947333,-76303.111601
7849.290293,10362.883188,-2368.659014,-76149.892501
7849.292852,13027.624579,-15100.201217,-77222.426198
7849.295410,13175.665768,-592.164754,-75383.797003
7849.297969,11695.253884,6365.771101,-74924.139704
7849.300528,148.041188,-4737.318029,-76149.892501
7849.303087,16284.530724,-4737.318029,-74770.920605
7849.305645,3997.112087,296.082377,-77069.207099
7849.308204,16432.571912,10807.006753,-72779.072310
7849.310763,4441.235652,33309.267390,-74617.701505
7849.313321,-27239.578666,4145.153275,-80593.246390
7849.315880,-15100.201217,-31976.896694,-82585.094684
7849.318438,23982.672521,5477.523971,-75843.454302
7849.320997,2072.576638,6809.894666,-72472.634111
7849.323556,-39675.038491,1036.288319,-75843.454302
7849.326114,-20429.683999,3108.864956,-75996.673402
7849.328673,-17912.983796,6957.935855,-79520.712692
7849.331231,-2368.659014,-4885.359217,-80593.246390
7849.333790,16136.489536,9918.759623,-76456.330700
7849.336348,7402.059420,10955.047942,-74158.044206
7849.338907,25907.207970,9474.636058,-71400.100414
7849.341465,31680.814318,14656.077652,-71246.881314
7849.344024,6661.853478,7698.141797,-74924.139704
7849.346583,-444.123565,2664.741391,-76609.549800
7849.349141,2220.617826,-2664.741391,-76456.330700
7849.351700,23094.425390,21465.972318,-76303.111601
7849.354258,8882.471304,20133.601622,-76762.768900
7849.356817,-18505.148550,9918.759623,-77528.864398
7849.359375,-1036.288319,740.205942,-71706.538613
7849.361934,3108.864956,1480.411884,-73085.510509
7849.364493,21910.095883,22650.301825,-74770.920605
7849.367051,11843.295072,17320.819043,-79214.274493
7849.369610,-2072.576638,3256.906145,-79827.150892
7849.372168,18801.230927,6513.812290,-75077.358804
7849.374727,19245.354492,3552.988522,-73085.510509
7849.377285,19245.354492,6661.853478,-72012.976812
7849.379844,8438.347739,3256.906145,-75230.577904
7849.382403,-9622.677246,7846.182985,-78601.398095
7849.384961,-13915.871710,5921.647536,-79980.369991
7849.387520,-29608.237680,-6957.935855,-80899.684589
7849.390078,-11547.212695,-8438.347739,-76456.330700
7849.392637,-2812.782580,-740.205942,-77222.426198
7849.395195,6513.812290,16580.613101,-77988.521696
7849.397754,-1480.411884,148.041188,-78601.398095
7849.400312,5181.441594,-8142.265362,-70327.566716
7849.402871,14952.160028,-2960.823768,-72319.415011
7849.405430,1332.370696,25759.166782,-79061.055394
7849.407988,-12435.459826,5329.482782,-80440.027290
7849.410547,-3256.906145,-21169.889941,-79827.150892
7849.413105,19985.560434,8290.306550,-72166.195912
7849.415663,-11399.171507,4885.359217,-73545.167808
7849.418221,-33605.349767,-6513.812290,-76609.549800
7849.420779,0.000000,-13915.871710,-76762.768900
7849.423337,21762.054695,4737.318029,-76762.768900
7849.425895,16284.530724,11399.171507,-77375.645298
7849.428453,-8290.306550,-592.164754,-78294.959896
7849.431011,15988.448347,19541.436869,-71859.757712
7849.433569,19985.560434,18653.189738,-70634.004916
7849.436127,3108.864956,-1332.370696,-74770.920605
7849.438685,7550.100608,6217.729913,-76149.892501
7849.441242,148.041188,16284.530724,-76456.330700
7849.443800,-5625.565159,16580.613101,-79980.369991
7849.446358,12139.377449,-10955.047942,-74924.139704
7849.448916,23242.466579,-8438.347739,-74924.139704
7849.451474,28571.949361,6217.729913,-70634.004916
7849.454032,16284.530724,9622.677246,-72472.634111
7849.456590,15248.242405,29016.072926,-72932.291410
7849.459148,-1036.288319,9474.636058,-80286.808190
7849.461706,13471.748144,-740.205942,-79367.493593
7849.464264,24574.837274,6661.853478,-74770.920605
7849.466822,12287.418637,6809.894666,-73391.948708
7849.469380,12287.418637,15988.448347,-71553.319513
7849.471938,-1332.370696,7550.100608,-75843.454302
7849.474495,-14804.118840,740.205942,-78754.617194
7849.477053,-10955.047942,2812.782580,-78754.617194
7849.479611,-5773.606348,-12879.583391,-78601.398095
7849.482169,10362.883188,1184.329507,-75077.358804
7849.484727,4441.235652,3552.988522,-75537.016103
7849.487285,11695.253884,4441.235652,-75690.235202
7849.489843,-2664.741391,-6957.935855,-78601.398095
7849.492401,-15840.407159,16136.489536,-77222.426198
7849.494959,-12879.583391,5033.400406,-74770.920605
7849.497517,16284.530724,-9622.677246,-74464.482406
7849.500075,21910.095883,8882.471304,-76456.330700
7849.502633,4885.359217,-2220.617826,-78294.959896
7849.505191,-11547.212695,-9030.512492,-77528.864398
7849.507748,-6217.729913,1332.370696,-72779.072310
7849.510306,-5329.482782,1924.535449,-71859.757712
7849.512864,-3552.988522,-8734.430116,-77222.426198
7849.515422,5033.400406,9178.553681,-78448.178995
7849.517980,10214.842000,7698.141797,-77682.083497
7849.520538,592.164754,444.123565,-77835.302597
7849.523096,17024.736666,15100.201217,-72166.195912
7849.525653,14804.118840,13323.706956,-71859.757712
7849.528211,8882.471304,5329.482782,-73085.510509
7849.530769,10066.800811,7698.141797,-74770.920605
7849.533327,-4737.318029,9474.636058,-77528.864398
7849.535885,-9030.512492,7994.224174,-78294.959896
7849.538443,4441.235652,10362.883188,-80133.589091
7849.541000,-3404.947333,43228.027013,-77988.521696
7849.543558,-28423.908173,32865.143825,-73391.948708
7849.546116,-18061.024985,-17764.942608,-75537.016103
7849.548674,17172.777854,19689.478057,-72932.291410
7849.551232,32865.143825,19097.313304,-76762.768900
7849.553789,5181.441594,23982.672521,-81052.903688
7849.556347,-13471.748144,2368.659014,-80286.808190
