#time,accel_x,accel_y,accel_z
10503.518640,-6217.729913,1628.453072,-76915.987999
10503.521218,-6365.771101,1628.453072,-75996.673402
10503.523797,-5625.565159,1628.453072,-75537.016103
10503.526375,-6069.688724,592.164754,-75996.673402
10503.528954,2516.700203,8734.430116,-75383.797003
10503.531532,14211.954086,-1332.370696,-73238.729609
10503.534111,4589.276840,-9474.636058,-74311.263306
10503.536689,-5625.565159,7698.141797,-76149.892501
10503.539268,-4441.235652,1628.453072,-76762.768900
10503.541846,-4885.359217,-18061.024985,-76762.768900
10503.544425,-2368.659014,-9622.677246,-77375.645298
10503.547003,-3997.112087,-3552.988522,-77988.521696
10503.549581,3701.029710,7994.224174,-76456.330700
10503.552160,23982.672521,-12435.459826,-75996.673402
10503.554738,23686.590144,-9178.553681,-70940.443115
10503.557317,-20281.642811,7698.141797,-76456.330700
10503.559895,-29608.237680,13619.789333,-76915.987999
10503.562474,-18653.189738,444.123565,-76762.768900
10503.565052,8882.471304,1184.329507,-76303.111601
10503.567631,888.247130,11695.253884,-74004.825107
10503.570209,-13915.871710,2368.659014,-75230.577904
10503.572788,-19097.313304,11991.336260,-77222.426198
10503.575366,-10362.883188,4145.153275,-75996.673402
10503.577944,-19097.313304,-2960.823768,-76303.111601
10503.580523,-16284.530724,16580.613101,-75230.577904
10503.583101,5625.565159,-2960.823768,-76762.768900
10503.585680,17616.901420,-9918.759623,-76609.549800
10503.588258,-4885.359217,5625.565159,-77222.426198
10503.590837,-22058.137072,10362.883188,-75537.016103
10503.593415,-2516.700203,8734.430116,-73851.606007
10503.595994,5181.441594,-2516.700203,-74924.139704
10503.598572,2664.741391,7994.224174,-76762.768900
10503.601151,-22206.178260,2812.782580,-76915.987999
10503.603729,-17912.983796,444.123565,-75996.673402
10503.606307,1924.535449,7994.224174,-75077.358804
10503.608886,-4737.318029,4293.194464,-77375.645298
10503.611464,-8586.388927,1776.494261,-78754.617194
10503.614043,-18209.066173,-7550.100608,-75843.454302
10503.616621,-34049.473332,16284.530724,-74004.825107
10503.619199,-13175.665768,12435.459826,-75996.673402
10503.621776,6069.688724,-4737.318029,-77528.864398
10503.624353,5477.523971,-444.123565,-76149.892501
10503.626931,-12287.418637,7846.182985,-76609.549800
10503.629508,-9326.594869,2960.823768,-75690.235202
10503.632085,-16432.571912,-3108.864956,-76149.892501
10503.634663,-12879.583391,8734.430116,-74770.920605
10503.637240,-1036.288319,5329.482782,-75077.358804
10503.639817,8734.430116,6217.729913,-75843.454302
10503.642395,13175.665768,-12139.377449,-77222.426198
10503.644972,-16136.489536,11251.130318,-75843.454302
10503.647549,-28423.908173,24574.837274,-75690.235202
10503.650126,-13767.830521,-19245.354492,-76149.892501
10503.652704,-9918.759623,-6217.729913,-76609.549800
10503.655281,-7846.182985,-4589.276840,-77375.645298
10503.657858,-5477.523971,11103.089130,-75230.577904
10503.660436,21762.054695,4885.359217,-77528.864398
10503.663013,19097.313304,-12287.418637,-76303.111601
10503.665590,-11695.253884,9918.759623,-75230.577904
10503.668168,-18653.189738,19689.478057,-74617.701505
10503.670745,-5033.400406,-16728.654289,-76149.892501
10503.673322,-740.205942,-18653.189738,-77069.207099
10503.675900,-5625.565159,5329.482782,-77222.426198
10503.678477,-5329.482782,8142.265362,-76303.111601
10503.681054,5625.565159,-2960.823768,-75537.016103
10503.683632,1480.411884,296.082377,-76456.330700
10503.686209,-7846.182985,0.000000,-77222.426198
10503.688786,-15988.448347,10066.800811,-75690.235202
10503.691364,-25907.207970,-7254.018232,-78601.398095
10503.693941,-25167.002028,-14211.954086,-82278.656485
10503.696518,-22206.178260,5329.482782,-79827.150892
10503.699096,-22946.384202,5773.606348,-75690.235202
10503.701673,-15248.242405,-5329.482782,-74464.482406
10503.704250,-11547.212695,2368.659014,-75690.235202
10503.706828,5033.400406,4293.194464,-76762.768900
10503.709405,-3701.029710,-1480.411884,-77375.645298
10503.711982,-6809.894666,-3552.988522,-77528.864398
10503.714560,-1332.370696,-2220.617826,-75996.673402
10503.717137,6513.812290,-6069.688724,-74924.139704
10503.719714,4145.153275,5477.523971,-74770.920605
10503.722291,296.082377,3701.029710,-76609.549800
10503.724868,-8586.388927,7402.059420,-77222.426198
10503.727444,5773.606348,7105.977043,-77222.426198
10503.730021,-3256.906145,-10214.842000,-76149.892501
10503.732598,-13471.748144,-2516.700203,-75230.577904
10503.735174,-13915.871710,12287.418637,-75383.797003
10503.737751,15840.407159,4145.153275,-76762.768900
10503.740328,5477.523971,-10955.047942,-77835.302597
10503.742904,-18949.272115,3552.988522,-77835.302597
10503.745481,-18061.024985,-2072.576638,-76303.111601
10503.748058,-6957.935855,-5033.400406,-74004.825107
10503.750634,1036.288319,11991.336260,-75383.797003
10503.753211,-19541.436869,6809.894666,-76303.111601
10503.755788,-20281.642811,17468.860231,-76456.330700
10503.758364,-1036.288319,-1332.370696,-77222.426198
10503.760941,-296.082377,-22798.343014,-76456.330700
10503.763518,-26647.413912,6365.771101,-75996.673402
10503.766094,-22946.384202,17172.777854,-74924.139704
10503.768671,-15840.407159,14359.995275,-74924.139704
10503.771248,6365.771101,-2072.576638,-75537.016103
10503.773824,1924.535449,6069.688724,-76456.330700
10503.776401,-14211.954086,7698.141797,-74311.263306
10503.778978,-19837.519246,5329.482782,-74464.482406
10503.781554,5329.482782,9918.759623,-75383.797003
10503.784131,10510.924376,-7550.100608,-77069.207099
10503.786708,-7105.977043,-11695.253884,-76609.549800
10503.789284,-3701.029710,18653.189738,-72779.072310
10503.791861,17024.736666,14359.995275,-71400.100414
10503.794438,18505.148550,-8290.306550,-72472.634111
10503.797014,-3256.906145,-4441.235652,-76456.330700
10503.799591,-12879.583391,-5477.523971,-78448.178995
10503.802168,5477.523971,5477.523971,-75690.235202
10503.804744,-8734.430116,2516.700203,-76609.549800
10503.807321,-17320.819043,10510.924376,-75843.454302
10503.809898,-7402.059420,-3256.906145,-75996.673402
10503.812474,-9622.677246,-4293.194464,-75996.673402
10503.815051,-24130.713709,10955.047942,-76456.330700
10503.817628,-23094.425390,19245.354492,-76915.987999
10503.820204,-148.041188,-3404.947333,-75383.797003
10503.822781,-2516.700203,2960.823768,-74924.139704
10503.825357,-11547.212695,-740.205942,-76456.330700
10503.827933,-19393.395680,3108.864956,-75537.016103
10503.830509,-7105.977043,10066.800811,-76456.330700
10503.833085,2812.782580,6661.853478,-76303.111601
10503.835662,8882.471304,-5625.565159,-76303.111601
10503.838238,-9918.759623,-17764.942608,-75996.673402
10503.840814,-32124.937883,17912.983796,-74311.263306
10503.843390,-18505.148550,19689.478057,-75690.235202
10503.845966,-3849.070898,-22650.301825,-78294.959896
10503.848542,-6957.935855,444.123565,-78141.740796
10503.851118,-11399.171507,-3701.029710,-75996.673402
10503.853695,9030.512492,12435.459826,-74158.044206
10503.856271,30940.608376,-444.123565,-77222.426198
10503.858847,11991.336260,-9622.677246,-78141.740796
10503.861423,-21317.931130,15692.365970,-76915.987999
10503.863999,-18949.272115,3552.988522,-76915.987999
10503.866575,-9030.512492,-12435.459826,-74924.139704
10503.869151,-9622.677246,-13915.871710,-75843.454302
10503.871728,-12879.583391,11399.171507,-75537.016103
10503.874304,-1628.453072,-4885.359217,-75996.673402
10503.876880,8142.265362,-1924.535449,-76762.768900
10503.879456,1036.288319,3701.029710,-77528.864398
10503.882032,-13175.665768,888.247130,-76609.549800
10503.884608,-6957.935855,8438.347739,-74004.825107
10503.887184,-8142.265362,6809.894666,-74924.139704
10503.889761,-5033.400406,6365.771101,-79980.369991
10503.892337,-7698.141797,7994.224174,-79673.931792
10503.894913,-14211.954086,592.164754,-76149.892501
10503.897489,1628.453072,3552.988522,-71859.757712
10503.900065,-6513.812290,-7846.182985,-75230.577904
10503.902641,-3404.947333,-5773.606348,-77375.645298
10503.905217,-5477.523971,1036.288319,-79980.369991
10503.907793,-3997.112087,9326.594869,-79061.055394
10503.910370,-592.164754,-3552.988522,-75537.016103
10503.912946,-7254.018232,-4145.153275,-74004.825107
10503.915522,-5921.647536,4293.194464,-75230.577904
10503.918098,-4589.276840,-14359.995275,-77375.645298
10503.920674,-10214.842000,-444.123565,-77988.521696
10503.923250,-5329.482782,3404.947333,-76762.768900
10503.925826,4441.235652,-6365.771101,-74770.920605
10503.928401,-2516.700203,22798.343014,-74004.825107
10503.930977,-4293.194464,15100.201217,-76303.111601
10503.933552,15248.242405,-8882.471304,-78141.740796
10503.936127,14063.912898,-22502.260637,-78141.740796
10503.938702,592.164754,15840.407159,-75996.673402
10503.941277,-15100.201217,-1776.494261,-73851.606007
10503.943852,-16728.654289,13471.748144,-74158.044206
10503.946427,-18801.230927,-2220.617826,-77069.207099
10503.949002,-26943.496289,2072.576638,-77069.207099
10503.951577,-13915.871710,16432.571912,-76762.768900
10503.954152,3997.112087,-10955.047942,-76609.549800
10503.956727,1776.494261,-18209.066173,-76149.892501
10503.959302,-23094.425390,14063.912898,-74770.920605
10503.961877,-14952.160028,22206.178260,-75690.235202
10503.964452,-7994.224174,14211.954086,-76149.892501
10503.967027,-444.123565,-4441.235652,-76609.549800
10503.969602,-10955.047942,-444.123565,-76149.892501
10503.972177,-24426.796086,13471.748144,-74617.701505
10503.974752,4885.359217,5033.400406,-73698.386908
10503.977327,6809.894666,-1036.288319,-75537.016103
10503.979902,444.123565,4441.235652,-76149.892501
10503.982477,-28275.866984,24574.837274,-77682.083497
10503.985053,-20281.642811,7105.977043,-75843.454302
10503.987628,-6365.771101,-1480.411884,-76609.549800
10503.990203,-11547.212695,-9918.759623,-77988.521696
10503.992778,-28127.825796,-10658.965565,-76915.987999
10503.995353,-8142.265362,17024.736666,-74158.044206
10503.997928,-7550.100608,23094.425390,-71553.319513
10504.000503,9474.636058,-444.123565,-73545.167808
10504.003078,-8882.471304,-7698.141797,-77222.426198
10504.005653,-28275.866984,16876.695478,-76609.549800
10504.008228,-15544.324782,2664.741391,-75996.673402
10504.010803,-5625.565159,-6513.812290,-77069.207099
10504.013378,-8586.388927,5625.565159,-76456.330700
10504.015953,-17912.983796,17912.983796,-72932.291410
10504.018528,444.123565,1924.535449,-75843.454302
10504.021103,7698.141797,-7846.182985,-77682.083497
10504.023678,-13471.748144,-5329.482782,-77835.302597
10504.026253,-35085.761651,7254.018232,-75690.235202
10504.028828,-30348.443622,21910.095883,-72779.072310
10504.031405,1480.411884,-1628.453072,-74924.139704
10504.033979,6661.853478,-4293.194464,-77222.426198
10504.036553,-5477.523971,12583.501014,-77682.083497
10504.039127,0.000000,-5625.565159,-76762.768900
10504.041701,24426.796086,-12139.377449,-75843.454302
10504.044276,8882.471304,-13323.706956,-76762.768900
10504.046850,-26795.455100,10066.800811,-75843.454302
10504.049424,-25907.207970,27979.784608,-74924.139704
10504.051998,4737.318029,-11695.253884,-75230.577904
10504.054572,3701.029710,5033.400406,-77222.426198
10504.057146,-3849.070898,-1184.329507,-77988.521696
10504.059720,1480.411884,-1036.288319,-75537.016103
10504.062294,10510.924376,-10807.006753,-75383.797003
10504.064868,-1184.329507,148.041188,-77375.645298
10504.067443,-15100.201217,9178.553681,-77528.864398
10504.070017,-8438.347739,-5773.606348,-75843.454302
10504.072591,4145.153275,888.247130,-73085.510509
10504.075165,0.000000,21169.889941,-73085.510509
10504.077739,17320.819043,1924.535449,-74770.920605
10504.080313,13471.748144,-14952.160028,-77528.864398
10504.082887,-6661.853478,-32124.937883,-78141.740796
10504.085461,-15840.407159,8734.430116,-76149.892501
10504.088035,-7994.224174,16728.654289,-74158.044206
10504.090610,13175.665768,7254.018232,-75077.358804
10504.093184,16580.613101,-17320.819043,-79061.055394
10504.095758,444.123565,-6069.688724,-79520.712692
10504.098332,-18061.024985,13915.871710,-75843.454302
10504.100906,-9326.594869,2812.782580,-74617.701505
10504.103480,-5477.523971,-17764.942608,-78754.617194
10504.106054,-14656.077652,1480.411884,-77835.302597
10504.108628,-11399.171507,7846.182985,-76149.892501
10504.111202,3701.029710,-10214.842000,-75230.577904
10504.113777,2220.617826,14211.954086,-74770.920605
10504.116351,12139.377449,13175.665768,-76149.892501
10504.118925,1184.329507,-13619.789333,-77222.426198
10504.121499,-9918.759623,-17616.901420,-76149.892501
10504.124073,5625.565159,10955.047942,-76762.768900
10504.126647,-14359.995275,296.082377,-75843.454302
10504.129221,-17172.777854,16580.613101,-74311.263306
10504.131795,-18949.272115,-7105.977043,-76609.549800
10504.134369,-27239.578666,3849.070898,-74924.139704
10504.136942,-15248.242405,19541.436869,-76149.892501
10504.139515,5773.606348,-12287.418637,-76762.768900
10504.142089,-296.082377,-19541.436869,-76303.111601
10504.144662,-28868.031738,14508.036463,-76149.892501
10504.147235,-14359.995275,16876.695478,-74158.044206
10504.149809,7402.059420,-3849.070898,-75383.797003
10504.152382,-3108.864956,4885.359217,-76915.987999
10504.154955,-12731.542202,3701.029710,-76149.892501
10504.157529,-18653.189738,4145.153275,-75996.673402
10504.160102,-5921.647536,9030.512492,-73851.606007
10504.162675,3108.864956,-296.082377,-77222.426198
10504.165249,-2220.617826,-18209.066173,-79061.055394
10504.167822,-9326.594869,-16432.571912,-73545.167808
10504.170395,-12435.459826,5625.565159,-73391.948708
10504.172969,-5921.647536,21910.095883,-75077.358804
10504.175542,-15100.201217,17468.860231,-79520.712692
10504.178115,-19837.519246,-3849.070898,-82278.656485
10504.180689,-13767.830521,-11399.171507,-77988.521696
10504.183262,-19689.478057,16580.613101,-73085.510509
10504.185836,-10658.965565,17912.983796,-72932.291410
10504.188409,-12435.459826,5181.441594,-75537.016103
10504.190982,3256.906145,-4293.194464,-78754.617194
10504.193556,-2072.576638,148.041188,-76303.111601
10504.196129,-16284.530724,4441.235652,-75230.577904
10504.198702,-25463.084405,2960.823768,-74924.139704
10504.201276,-11399.171507,11547.212695,-73698.386908
10504.203849,2960.823768,7550.100608,-76303.111601
10504.206422,6513.812290,-20725.766376,-79061.055394
10504.208996,-25167.002028,7698.141797,-75537.016103
10504.211569,-20725.766376,18357.107362,-75383.797003
10504.214142,3404.947333,0.000000,-74770.920605
10504.216716,-1924.535449,-15840.407159,-76609.549800
10504.219289,-4589.276840,1480.411884,-78141.740796
10504.221862,-7254.018232,-2960.823768,-77528.864398
10504.224436,14359.995275,8142.265362,-75537.016103
10504.227009,26647.413912,-9474.636058,-76762.768900
10504.229582,-3849.070898,-8438.347739,-76303.111601
10504.232156,-28719.990550,26351.331535,-75230.577904
10504.234729,-7550.100608,444.123565,-75690.235202
10504.237301,-4885.359217,-4293.194464,-77528.864398
10504.239873,-6661.853478,-3997.112087,-79367.493593
10504.242445,-6069.688724,-10658.965565,-76456.330700
10504.245017,-3552.988522,-9770.718434,-75383.797003
10504.247589,-8290.306550,6365.771101,-76456.330700
10504.250160,-4737.318029,15396.283594,-76303.111601
10504.252732,-5625.565159,592.164754,-76609.549800
10504.255304,-888.247130,-15840.407159,-74617.701505
10504.257876,-10066.800811,-27239.578666,-76762.768900
10504.260448,-12139.377449,-3701.029710,-80133.589091
10504.263020,-9918.759623,-5181.441594,-78141.740796
10504.265592,-20429.683999,740.205942,-77528.864398
10504.268164,-4737.318029,6217.729913,-73391.948708
10504.270736,3849.070898,-13027.624579,-73545.167808
10504.273308,2960.823768,-888.247130,-75843.454302
10504.275879,592.164754,-2664.741391,-76609.549800
10504.278451,2516.700203,-2812.782580,-77375.645298
10504.281023,-4293.194464,8882.471304,-75996.673402
10504.283595,12879.583391,5477.523971,-76915.987999
10504.286167,6365.771101,-3404.947333,-77222.426198
10504.288739,-10362.883188,-4589.276840,-76149.892501
10504.291311,-15248.242405,7698.141797,-75537.016103
10504.293883,-24722.878463,-17024.736666,-77375.645298
10504.296455,-22206.178260,7402.059420,-77222.426198
10504.299027,6513.812290,2072.576638,-76762.768900
10504.301599,23390.507767,-18653.189738,-76456.330700
10504.304170,17468.860231,16432.571912,-75383.797003
10504.306742,-12435.459826,740.205942,-75690.235202
10504.309314,-25759.166782,14508.036463,-75690.235202
10504.311886,-13619.789333,-3701.029710,-77222.426198
10504.314458,-18801.230927,-13175.665768,-77375.645298
10504.317030,-34049.473332,7402.059420,-76915.987999
10504.319602,-18801.230927,13027.624579,-75690.235202
10504.322174,17764.942608,-12287.418637,-75843.454302
10504.324746,9770.718434,-740.205942,-75230.577904
10504.327318,-15692.365970,21317.931130,-75077.358804
10504.329889,-14952.160028,8882.471304,-76149.892501
10504.332461,-10214.842000,-5921.647536,-75537.016103
10504.335033,-18209.066173,444.123565,-76149.892501
10504.337605,-17764.942608,9918.759623,-75996.673402
10504.340176,-740.205942,5921.647536,-74004.825107
10504.342747,9918.759623,11399.171507,-75077.358804
10504.345318,9030.512492,3997.112087,-77835.302597
10504.347889,-12435.459826,5329.482782,-75383.797003
10504.350460,-12287.418637,-2072.576638,-73391.948708
10504.353031,-13471.748144,-1924.535449,-76456.330700
10504.355602,-12731.542202,14063.912898,-80286.808190
10504.358173,-7846.182985,14211.954086,-78754.617194
10504.360744,-4293.194464,5181.441594,-75690.235202
10504.363315,-14359.995275,8290.306550,-72472.634111
10504.365886,-13767.830521,3256.906145,-73851.606007
10504.368457,-8438.347739,-2960.823768,-76762.768900
10504.371028,-5033.400406,1924.535449,-76915.987999
10504.373599,-7105.977043,13027.624579,-75383.797003
10504.376170,-7402.059420,-3256.906145,-75230.577904
10504.378741,-13915.871710,-3256.906145,-74770.920605
10504.381312,-11843.295072,3552.988522,-75690.235202
10504.383883,-1184.329507,21317.931130,-76609.549800
10504.386454,11843.295072,-11103.089130,-75996.673402
10504.389025,-9622.677246,-1184.329507,-75996.673402
10504.391596,-26647.413912,24278.754898,-75537.016103
10504.394167,-11695.253884,-10510.924376,-75843.454302
10504.396739,-3404.947333,-9474.636058,-77069.207099
10504.399310,-7698.141797,-10214.842000,-77835.302597
10504.401881,-10807.006753,14359.995275,-75843.454302
10504.404452,20133.601622,1480.411884,-76456.330700
10504.407023,20873.807564,-15692.365970,-76149.892501
10504.409594,-9178.553681,-5329.482782,-75843.454302
10504.412165,-15100.201217,4145.153275,-77222.426198
10504.414736,-23390.507767,-12583.501014,-77069.207099
10504.417307,-13323.706956,-8438.347739,-76762.768900
10504.419878,-2960.823768,8142.265362,-75996.673402
10504.422448,6513.812290,-5477.523971,-75843.454302
10504.425017,1480.411884,148.041188,-76149.892501
10504.427587,-3701.029710,-1924.535449,-77222.426198
10504.430157,-8882.471304,-10807.006753,-78294.959896
10504.432727,-12139.377449,-19689.478057,-75996.673402
10504.435297,-13027.624579,-6217.729913,-75690.235202
10504.437867,296.082377,38934.832549,-76762.768900
10504.440437,12139.377449,18061.024985,-75843.454302
10504.443007,-5477.523971,-5329.482782,-76915.987999
10504.445577,-3256.906145,-17172.777854,-74924.139704
10504.448146,-14952.160028,6661.853478,-75843.454302
10504.450716,0.000000,-592.164754,-77222.426198
10504.453286,19097.313304,-7550.100608,-77375.645298
10504.455856,6661.853478,-9770.718434,-77222.426198
10504.458426,-22946.384202,4885.359217,-76303.111601
10504.460996,-13619.789333,8438.347739,-74617.701505
10504.463566,2368.659014,-12583.501014,-77069.207099
10504.466136,2812.782580,2812.782580,-76915.987999
10504.468706,-7254.018232,-15988.448347,-77835.302597
10504.471275,-23242.466579,-1924.535449,-75690.235202
10504.473845,-11695.253884,592.164754,-76609.549800
10504.476415,-11251.130318,-5773.606348,-77375.645298
10504.478985,-12879.583391,7402.059420,-74770.920605
10504.481555,-7105.977043,18357.107362,-74770.920605
10504.484125,-10510.924376,7254.018232,-74311.263306
10504.486695,-1480.411884,15692.365970,-76762.768900
10504.489265,444.123565,-1184.329507,-77528.864398
10504.491835,-9326.594869,-16284.530724,-76762.768900
10504.494404,-23834.631332,18949.272115,-74924.139704
10504.496974,3256.906145,11843.295072,-74464.482406
10504.499544,12731.542202,-1924.535449,-74924.139704
10504.502114,-6069.688724,13767.830521,-74924.139704
10504.504684,-14952.160028,12139.377449,-75690.235202
10504.507254,-12583.501014,1184.329507,-74924.139704
10504.509824,-10807.006753,-4293.194464,-76609.549800
10504.512394,-14508.036463,4441.235652,-77069.207099
10504.514964,-21169.889941,-3552.988522,-78601.398095
10504.517533,-9474.636058,-9770.718434,-77222.426198
10504.520103,-17024.736666,39526.997303,-75537.016103
10504.522673,-10214.842000,35381.844028,-75537.016103
10504.525242,-888.247130,-28719.990550,-75996.673402
10504.527811,2812.782580,-28719.990550,-75843.454302
10504.530380,-10214.842000,20873.807564,-77835.302597
10504.532949,-6217.729913,17024.736666,-74311.263306
10504.535518,5181.441594,-7105.977043,-74158.044206
10504.538087,-9474.636058,-4145.153275,-73851.606007
10504.540655,-14508.036463,3552.988522,-76609.549800
10504.543224,-21910.095883,4589.276840,-77528.864398
10504.545793,-18505.148550,3256.906145,-75843.454302
10504.548362,-1184.329507,7846.182985,-74464.482406
10504.550931,3404.947333,4589.276840,-75996.673402
10504.553500,-2220.617826,-9474.636058,-76303.111601
10504.556069,-19541.436869,22502.260637,-73851.606007
10504.558638,-740.205942,10955.047942,-77069.207099
10504.561206,8142.265362,-6957.935855,-77222.426198
10504.563775,-10955.047942,7105.977043,-74770.920605
10504.566344,-14656.077652,4737.318029,-75996.673402
10504.568913,2664.741391,-4441.235652,-75230.577904
10504.571482,18653.189738,-15396.283594,-78448.178995
10504.574051,4589.276840,-14952.160028,-78141.740796
10504.576620,-28423.908173,11547.212695,-76456.330700
10504.579189,-19837.519246,23242.466579,-75230.577904
10504.581758,11547.212695,-18061.024985,-75077.358804
10504.584326,14063.912898,-2368.659014,-77375.645298
10504.586895,-6069.688724,-740.205942,-76915.987999
10504.589464,-14952.160028,-6365.771101,-75996.673402
10504.592033,-9622.677246,7254.018232,-76303.111601
10504.594602,-3997.112087,-6217.729913,-78141.740796
10504.597171,-6217.729913,-740.205942,-76456.330700
10504.599740,2072.576638,3256.906145,-75537.016103
10504.602309,18061.024985,9178.553681,-73545.167808
10504.604877,-2812.782580,-6069.688724,-75537.016103
10504.607446,-592.164754,-17468.860231,-79673.931792
10504.610015,-6661.853478,-888.247130,-77835.302597
10504.612584,-5477.523971,9474.636058,-74924.139704
10504.615153,2220.617826,-888.247130,-73238.729609
10504.617722,4885.359217,-9770.718434,-75537.016103
10504.620291,-5477.523971,-6069.688724,-77375.645298
10504.622860,-10066.800811,2516.700203,-76915.987999
10504.625428,15840.407159,-4145.153275,-77222.426198
10504.627997,5477.523971,-1480.411884,-76762.768900
10504.630565,-18505.148550,5921.647536,-75690.235202
10504.633133,-18209.066173,9622.677246,-74924.139704
10504.635701,-22650.301825,-3552.988522,-75690.235202
10504.638269,-3849.070898,11399.171507,-77222.426198
10504.640837,14359.995275,-13027.624579,-77988.521696
10504.643405,8734.430116,-17172.777854,-76303.111601
10504.645974,6365.771101,14952.160028,-74770.920605
10504.648542,-11695.253884,-444.123565,-74464.482406
10504.651110,-18357.107362,17616.901420,-75690.235202
10504.653678,-30644.525999,-2960.823768,-78141.740796
10504.656246,-31828.855506,296.082377,-76609.549800
10504.658814,-12139.377449,7846.182985,-76149.892501
10504.661382,7105.977043,-16876.695478,-76303.111601
10504.663950,-3701.029710,6661.853478,-75230.577904
10504.666519,-7846.182985,14211.954086,-76762.768900
10504.669087,-7994.224174,15988.448347,-74924.139704
10504.671655,2072.576638,-6365.771101,-76456.330700
10504.674223,-4293.194464,9326.594869,-76609.549800
10504.676791,-12435.459826,5181.441594,-75383.797003
10504.679359,-13027.624579,-6069.688724,-75077.358804
10504.681927,-11103.089130,5033.400406,-77222.426198
10504.684495,14063.912898,12879.583391,-74464.482406
10504.687064,14359.995275,5033.400406,-74158.044206
10504.689632,296.082377,4589.276840,-73085.510509
10504.692200,14508.036463,7994.224174,-69867.909418
10504.694768,14508.036463,-6513.812290,-73085.510509
10504.697336,-7402.059420,-740.205942,-78294.959896
10504.699904,-20873.807564,10807.006753,-78907.836294
10504.702472,-16876.695478,18949.272115,-76303.111601
10504.705041,-6069.688724,1924.535449,-72779.072310
10504.707609,-15544.324782,-2368.659014,-76456.330700
10504.710177,-14656.077652,8142.265362,-76303.111601
10504.712745,-7994.224174,-3701.029710,-75537.016103
10504.715313,-10510.924376,3256.906145,-75996.673402
10504.717881,-9622.677246,13027.624579,-76303.111601
10504.720449,2072.576638,-12435.459826,-76149.892501
10504.723017,-25167.002028,5477.523971,-75383.797003
10504.725586,-14211.954086,20429.683999,-75537.016103
10504.728154,8586.388927,444.123565,-75230.577904
10504.730720,-5625.565159,-17912.983796,-77682.083497
10504.733287,-3404.947333,-1924.535449,-77222.426198
10504.735854,-10214.842000,-1332.370696,-76456.330700
10504.738421,17764.942608,4145.153275,-74770.920605
10504.740987,26943.496289,-10362.883188,-76609.549800
10504.743554,-9770.718434,-1776.494261,-77222.426198
10504.746121,-29164.114115,28571.949361,-76609.549800
10504.748687,-4293.194464,-7550.100608,-74924.139704
10504.751254,12879.583391,-9474.636058,-76762.768900
10504.753821,1628.453072,-2368.659014,-77069.207099
10504.756387,-10658.965565,-2960.823768,-75383.797003
10504.758954,-8882.471304,3849.070898,-76456.330700
10504.761521,148.041188,4145.153275,-75843.454302
10504.764087,-1480.411884,2516.700203,-76456.330700
10504.766654,-27831.743419,-3552.988522,-78294.959896
10504.769221,-31828.855506,6069.688724,-77375.645298
10504.771788,-13915.871710,-11103.089130,-77682.083497
10504.774354,4589.276840,-23538.548956,-78754.617194
10504.776921,-4441.235652,9030.512492,-76915.987999
10504.779488,-14656.077652,13619.789333,-75690.235202
10504.782054,3849.070898,-10510.924376,-74617.701505
10504.784621,10807.006753,-20133.601622,-76915.987999
10504.787188,-9918.759623,11547.212695,-76609.549800
10504.789754,2812.782580,16136.489536,-74617.701505
10504.792321,-6513.812290,-1628.453072,-76609.549800
10504.794888,2812.782580,-13027.624579,-76149.892501
10504.797455,-10362.883188,4441.235652,-76149.892501
10504.800021,-30200.402434,-4589.276840,-76149.892501
10504.802588,-14656.077652,8290.306550,-75537.016103
10504.805155,16876.695478,-17320.819043,-78448.178995
10504.807721,15544.324782,-14656.077652,-77835.302597
10504.810288,5625.565159,16432.571912,-76303.111601
10504.812855,-15100.201217,-8142.265362,-74770.920605
10504.815421,-24130.713709,15396.283594,-73851.606007
10504.817988,-30052.361245,-1924.535449,-77528.864398
10504.820555,-27535.661042,2516.700203,-75537.016103
10504.823122,-9178.553681,9030.512492,-76456.330700
10504.825688,-11103.089130,-1184.329507,-75843.454302
10504.828255,-888.247130,-17024.736666,-76456.330700
10504.830822,-15100.201217,16284.530724,-76456.330700
10504.833387,-9178.553681,18357.107362,-73698.386908
10504.835953,2072.576638,-10066.800811,-76762.768900
10504.838519,-5477.523971,7254.018232,-77528.864398
10504.841085,-16284.530724,10214.842000,-75077.358804
10504.843651,-13915.871710,1184.329507,-75077.358804
10504.846217,7105.977043,11547.212695,-73698.386908
10504.848783,19393.395680,23242.466579,-74004.825107
10504.851349,6809.894666,2072.576638,-75996.673402
10504.853914,3701.029710,-29460.196492,-73085.510509
10504.856480,8882.471304,-13175.665768,-72319.415011
10504.859046,-5921.647536,-3552.988522,-76303.111601
10504.861612,-17468.860231,18505.148550,-77835.302597
10504.864178,-4145.153275,4293.194464,-76915.987999
10504.866744,3552.988522,2960.823768,-75230.577904
10504.869310,-19393.395680,11843.295072,-74464.482406
10504.871876,-27535.661042,6513.812290,-75690.235202
10504.874441,-10214.842000,-5181.441594,-74464.482406
10504.877007,-8734.430116,1332.370696,-75996.673402
10504.879573,-6513.812290,16136.489536,-76915.987999
10504.882139,4885.359217,-11695.253884,-76762.768900
10504.884705,-16728.654289,6809.894666,-75537.016103
10504.887271,-11547.212695,19689.478057,-75690.235202
10504.889837,-11991.336260,14952.160028,-75690.235202
10504.892403,-5181.441594,-10362.883188,-77528.864398
10504.894968,-5033.400406,-5773.606348,-77682.083497
10504.897534,-7550.100608,-5773.606348,-77375.645298
10504.900100,15988.448347,888.247130,-75537.016103
10504.902666,15100.201217,-12583.501014,-75537.016103
10504.905232,-15840.407159,5625.565159,-76303.111601
10504.907798,-23242.466579,26203.290347,-76456.330700
10504.910364,3997.112087,-11843.295072,-75537.016103
10504.912929,5921.647536,-17764.942608,-78141.740796
10504.915495,-15100.201217,-7846.182985,-77988.521696
10504.918061,-21021.848753,-3701.029710,-75996.673402
10504.920627,-16284.530724,3997.112087,-75230.577904
10504.923193,-8290.306550,-2368.659014,-75996.673402
10504.925759,-12583.501014,-4589.276840,-78448.178995
10504.928325,-31976.896694,-10807.006753,-78294.959896
10504.930891,-28571.949361,9030.512492,-77375.645298
10504.933456,-36714.214723,10807.006753,-78294.959896
10504.936021,-17172.777854,-5773.606348,-80593.246390
10504.938585,-7550.100608,-6365.771101,-80133.589091
10504.941150,-7994.224174,-5181.441594,-77222.426198
10504.943714,-1184.329507,148.041188,-75383.797003
10504.946278,6957.935855,1628.453072,-74770.920605
10504.948843,21614.013506,4293.194464,-75537.016103
10504.951407,7698.141797,-296.082377,-76456.330700
10504.953972,-1480.411884,-10807.006753,-78448.178995
10504.956536,-14063.912898,10066.800811,-76456.330700
10504.959100,-13471.748144,13619.789333,-73238.729609
10504.961665,11991.336260,13027.624579,-74464.482406
10504.964229,10807.006753,-15544.324782,-77375.645298
10504.966794,-4293.194464,-13027.624579,-77988.521696
10504.969358,-8734.430116,4885.359217,-77528.864398
10504.971922,-15692.365970,-2812.782580,-75230.577904
10504.974487,-14211.954086,19985.560434,-74158.044206
10504.977051,-26795.455100,5921.647536,-75230.577904
10504.979616,-17172.777854,8586.388927,-75537.016103
10504.982180,5329.482782,444.123565,-76303.111601
10504.984745,8438.347739,-13915.871710,-77375.645298
10504.987309,4737.318029,6661.853478,-75537.016103
10504.989873,148.041188,22650.301825,-74464.482406
10504.992438,3404.947333,4737.318029,-74311.263306
10504.995002,-5773.606348,1036.288319,-75843.454302
10504.997567,-23094.425390,15988.448347,-76915.987999
10505.000131,-12139.377449,7698.141797,-75383.797003
10505.002695,888.247130,-3552.988522,-75537.016103
10505.005260,-1332.370696,18357.107362,-75537.016103
10505.007824,11991.336260,31088.649564,-75383.797003
10505.010389,7550.100608,14211.954086,-73851.606007
10505.012953,6069.688724,3552.988522,-71400.100414
10505.015517,6661.853478,-740.205942,-73545.167808
10505.018082,-12287.418637,-9178.553681,-78141.740796
10505.020646,-13027.624579,18209.066173,-77375.645298
10505.023211,-11547.212695,16284.530724,-75690.235202
10505.025775,-4737.318029,-1924.535449,-74924.139704
10505.028339,-7254.018232,-2220.617826,-76609.549800
10505.030904,-25611.125593,9178.553681,-74770.920605
10505.033468,-10510.924376,4441.235652,-74617.701505
10505.036033,2072.576638,-10214.842000,-77375.645298
10505.038599,-7105.977043,1332.370696,-77069.207099
10505.041162,-1776.494261,29756.278868,-74924.139704
10505.043726,14656.077652,-6957.935855,-75383.797003
10505.046289,-4885.359217,592.164754,-76149.892501
10505.048852,-7846.182985,7846.182985,-76456.330700
10505.051416,-19245.354492,3997.112087,-77222.426198
10505.053979,-5921.647536,-11251.130318,-76303.111601
10505.056543,-1332.370696,-27091.537477,-78294.959896
10505.059106,-26647.413912,8438.347739,-76303.111601
10505.061669,-4293.194464,17024.736666,-75077.358804
10505.064233,26351.331535,-7994.224174,-75537.016103
10505.066796,9178.553681,-4293.194464,-76149.892501
10505.069359,-17468.860231,12287.418637,-76609.549800
10505.071923,-7254.018232,8290.306550,-74924.139704
10505.074486,11251.130318,-17468.860231,-78141.740796
10505.077049,2960.823768,-3256.906145,-76609.549800
10505.079613,-888.247130,2812.782580,-76149.892501
10505.082176,-16136.489536,4145.153275,-76303.111601
10505.084739,-24574.837274,-296.082377,-76456.330700
10505.087303,-12139.377449,3552.988522,-77988.521696
10505.089866,-28571.949361,1628.453072,-77222.426198
10505.092430,-16136.489536,-10362.883188,-78294.959896
10505.094993,-4589.276840,-148.041188,-79520.712692
10505.097556,-1184.329507,-9326.594869,-78294.959896
10505.100120,-7994.224174,-2960.823768,-77069.207099
10505.102683,-13915.871710,-8882.471304,-76456.330700
10505.105246,-14656.077652,-4293.194464,-76609.549800
10505.107810,-3404.947333,8882.471304,-77528.864398
10505.110373,11843.295072,-9918.759623,-78141.740796
10505.112936,3849.070898,-1776.494261,-76915.987999
10505.115500,-18949.272115,-24574.837274,-78294.959896
10505.118063,-31680.814318,10362.883188,-76456.330700
10505.120626,-3108.864956,592.164754,-76149.892501
10505.123190,18949.272115,-20577.725188,-76456.330700
10505.125753,17320.819043,17320.819043,-75537.016103
10505.128317,-8438.347739,3552.988522,-75077.358804
10505.130880,-14952.160028,15988.448347,-75077.358804
10505.133443,-14063.912898,-4589.276840,-76762.768900
10505.136007,-32569.061448,148.041188,-75843.454302
10505.138570,-26647.413912,16580.613101,-76915.987999
10505.141133,-148.041188,-13619.789333,-77222.426198
10505.143695,-3404.947333,-12435.459826,-75996.673402
10505.146258,-6957.935855,16580.613101,-76303.111601
10505.148820,-5329.482782,19541.436869,-75077.358804
10505.151383,3404.947333,-8290.306550,-76149.892501
10505.153946,-9178.553681,3108.864956,-76762.768900
10505.156508,-22650.301825,6661.853478,-75843.454302
10505.159071,-13471.748144,1628.453072,-75843.454302
10505.161634,13175.665768,-5625.565159,-74617.701505
10505.164196,14508.036463,-9918.759623,-73698.386908
10505.166759,3849.070898,3849.070898,-73698.386908
10505.169321,-6365.771101,9474.636058,-72625.853210
10505.171884,1924.535449,5773.606348,-72932.291410
10505.174447,5033.400406,9474.636058,-75996.673402
10505.177009,-9622.677246,2072.576638,-77988.521696
10505.179572,-17172.777854,14211.954086,-76762.768900
10505.182134,-21021.848753,6513.812290,-75690.235202
10505.184697,-29608.237680,-2368.659014,-75537.016103
10505.187260,-9326.594869,9326.594869,-75383.797003
10505.189822,3256.906145,-4885.359217,-75996.673402
10505.192385,-2516.700203,-6069.688724,-76149.892501
10505.194948,1480.411884,30348.443622,-74617.701505
10505.197510,17172.777854,-4589.276840,-75537.016103
10505.200073,-4145.153275,-592.164754,-75690.235202
10505.202635,-32865.143825,21317.931130,-75843.454302
10505.205198,-20577.725188,-7105.977043,-77222.426198
10505.207761,-4737.318029,-9326.594869,-76609.549800
10505.210323,4737.318029,-28571.949361,-78754.617194
10505.212886,-25759.166782,5773.606348,-76456.330700
10505.215448,-12139.377449,21614.013506,-74770.920605
10505.218011,23686.590144,-2812.782580,-75230.577904
10505.220574,12139.377449,-8882.471304,-76762.768900
10505.223136,-17616.901420,10066.800811,-77222.426198
10505.225699,-6069.688724,9030.512492,-74924.139704
10505.228261,13619.789333,-21910.095883,-76915.987999
10505.230824,-888.247130,-3849.070898,-77222.426198
10505.233387,-24722.878463,8586.388927,-76609.549800
10505.235949,-14656.077652,-7550.100608,-76915.987999
10505.238512,-7254.018232,-20725.766376,-77835.302597
10505.241075,4145.153275,-30200.402434,-75843.454302
10505.243636,-16136.489536,-14063.912898,-78141.740796
10505.246198,-14359.995275,7254.018232,-76915.987999
10505.248759,1184.329507,1480.411884,-77682.083497
10505.251320,8438.347739,-14508.036463,-77682.083497
10505.253882,-12287.418637,-7254.018232,-77682.083497
10505.256443,-22502.260637,11251.130318,-75690.235202
10505.259005,11991.336260,-6365.771101,-74158.044206
10505.261566,14804.118840,-15692.365970,-77528.864398
10505.264128,-7105.977043,10362.883188,-78448.178995
10505.266689,-15248.242405,25315.043216,-73851.606007
10505.269251,21910.095883,444.123565,-74464.482406
10505.271812,19393.395680,-20429.683999,-76149.892501
10505.274374,12879.583391,-18653.189738,-77528.864398
10505.276935,-4589.276840,13323.706956,-77528.864398
10505.279497,-17468.860231,1776.494261,-72779.072310
10505.282058,-11399.171507,14359.995275,-73698.386908
10505.284620,-28719.990550,3552.988522,-77069.207099
10505.287181,-26647.413912,15100.201217,-74924.139704
10505.289743,444.123565,0.000000,-75690.235202
10505.292304,11695.253884,-25315.043216,-77528.864398
10505.294866,-10214.842000,13619.789333,-77375.645298
10505.297427,-12435.459826,5921.647536,-75383.797003
10505.299989,-11843.295072,-3256.906145,-73851.606007
10505.302550,-13175.665768,17024.736666,-74617.701505
10505.305112,-23242.466579,15544.324782,-76762.768900
10505.307673,-14804.118840,888.247130,-76609.549800
10505.310234,-444.123565,5477.523971,-74617.701505
10505.312796,2516.700203,19393.395680,-75690.235202
10505.315357,4885.359217,-3256.906145,-77069.207099
10505.317919,-10658.965565,-29756.278868,-77069.207099
10505.320480,-23982.672521,-1332.370696,-75230.577904
10505.323042,-10066.800811,28719.990550,-75077.358804
10505.325603,7550.100608,5181.441594,-75690.235202
10505.328165,-1332.370696,-7846.182985,-77222.426198
10505.330726,-32717.102636,12435.459826,-76456.330700
10505.333288,-23242.466579,13175.665768,-75230.577904
10505.335849,-1480.411884,2072.576638,-74617.701505
10505.338411,-5921.647536,-7846.182985,-76609.549800
10505.340972,-8586.388927,9178.553681,-76609.549800
10505.343534,-5181.441594,-5773.606348,-77222.426198
10505.346095,-18801.230927,2960.823768,-75383.797003
10505.348655,-8290.306550,15100.201217,-74311.263306
10505.351216,1776.494261,8586.388927,-75077.358804
10505.353777,148.041188,-1332.370696,-76149.892501
10505.356338,-5921.647536,-2960.823768,-77222.426198
10505.358899,-3256.906145,-9918.759623,-77375.645298
10505.361460,8438.347739,-20429.683999,-78294.959896
10505.364021,-15544.324782,-8734.430116,-76456.330700
10505.366582,-20725.766376,18357.107362,-75843.454302
10505.369142,-25018.960840,26943.496289,-75383.797003
10505.371703,2812.782580,-10214.842000,-76149.892501
10505.374264,6513.812290,-11103.089130,-77069.207099
10505.376825,-9326.594869,6365.771101,-77375.645298
10505.379386,-7105.977043,-4737.318029,-77988.521696
10505.381947,1776.494261,-7550.100608,-76609.549800
10505.384508,-10955.047942,-4293.194464,-78141.740796
10505.387069,-13619.789333,1036.288319,-77069.207099
10505.389629,-17616.901420,1184.329507,-75537.016103
10505.392190,-10214.842000,13027.624579,-76456.330700
10505.394751,14211.954086,444.123565,-75077.358804
10505.397312,2960.823768,-10214.842000,-77222.426198
10505.399873,-11251.130318,6069.688724,-77375.645298
10505.402434,-14063.912898,-17764.942608,-78141.740796
10505.404995,-12731.542202,-3997.112087,-75843.454302
10505.407556,-4293.194464,7698.141797,-74924.139704
10505.410116,4293.194464,148.041188,-76762.768900
10505.412677,8734.430116,-5033.400406,-76762.768900
10505.415238,-8290.306550,11547.212695,-75230.577904
10505.417799,1628.453072,18209.066173,-75383.797003
10505.420360,10362.883188,-19541.436869,-77069.207099
10505.422921,-4293.194464,-15544.324782,-77528.864398
10505.425482,-18949.272115,3404.947333,-77835.302597
10505.428043,-18357.107362,2516.700203,-74770.920605
10505.430603,-6365.771101,18209.066173,-74311.263306
10505.433164,-27979.784608,-5033.400406,-76456.330700
10505.435725,-32569.061448,7846.182985,-75537.016103
10505.438286,-11991.336260,9622.677246,-76609.549800
10505.440847,11843.295072,-21465.972318,-76456.330700
10505.443408,3849.070898,2812.782580,-76303.111601
10505.445969,-5181.441594,8438.347739,-76303.111601
10505.448500,-10066.800811,2516.700203,-74311.263306
10505.451031,-19689.478057,11547.212695,-74770.920605
10505.453563,-17616.901420,15544.324782,-76149.892501
10505.456094,-1036.288319,296.082377,-75690.235202
10505.458625,-7105.977043,-15988.448347,-77835.302597
10505.461157,-19393.395680,-7846.182985,-77222.426198
10505.463688,-7105.977043,16432.571912,-78601.398095
10505.466219,-5033.400406,8290.306550,-74311.263306
10505.468750,-1036.288319,2220.617826,-71706.538613
10505.471282,-592.164754,3552.988522,-75383.797003
10505.473813,-10658.965565,9622.677246,-76149.892501
10505.476344,-16580.613101,4145.153275,-76456.330700
10505.478876,-12731.542202,-1776.494261,-77069.207099
10505.481407,-19689.478057,-296.082377,-74617.701505
10505.483938,-23242.466579,12435.459826,-73851.606007
10505.486470,-7402.059420,2960.823768,-76609.549800
10505.489001,7254.018232,-10362.883188,-75996.673402
10505.491532,6069.688724,24130.713709,-76303.111601
10505.494064,2368.659014,2220.617826,-76303.111601
10505.496595,5625.565159,1332.370696,-74158.044206
10505.499126,-5181.441594,5477.523971,-75077.358804
10505.501657,-10510.924376,2220.617826,-76303.111601
10505.504189,-5773.606348,-2368.659014,-77528.864398
10505.506720,-2072.576638,-26351.331535,-79367.493593
10505.509251,-20429.683999,6365.771101,-76303.111601
10505.511783,148.041188,16876.695478,-75383.797003
10505.514314,24870.919651,-5329.482782,-75230.577904
10505.516845,5329.482782,-2220.617826,-76303.111601
10505.519377,-22354.219448,7846.182985,-76762.768900
10505.521908,-17320.819043,-13915.871710,-78294.959896
10505.524439,-16284.530724,-21021.848753,-78141.740796
10505.526971,-10214.842000,7105.977043,-75996.673402
10505.529502,-8438.347739,15544.324782,-74464.482406
10505.532033,9770.718434,7698.141797,-74924.139704
10505.534564,14211.954086,-9178.553681,-75077.358804
10505.537096,3108.864956,-21465.972318,-76303.111601
10505.539627,-8290.306550,4293.194464,-76149.892501
10505.542158,-3997.112087,6661.853478,-75383.797003
10505.544690,2516.700203,5329.482782,-75996.673402
10505.547221,25167.002028,-2368.659014,-76149.892501
10505.549758,7846.182985,-15840.407159,-77069.207099
10505.552294,-15692.365970,592.164754,-75230.577904
10505.554831,-14211.954086,5181.441594,-76609.549800
10505.557367,-3849.070898,-5033.400406,-78448.178995
10505.559904,-14508.036463,-24722.878463,-77988.521696
10505.562440,-32569.061448,13027.624579,-76303.111601
10505.564977,-6809.894666,1628.453072,-75537.016103
10505.567514,21465.972318,-18209.066173,-76149.892501
10505.570050,23538.548956,11991.336260,-76609.549800
10505.572587,-8586.388927,6217.729913,-76149.892501
10505.575123,-22058.137072,16728.654289,-74464.482406
10505.577660,-18801.230927,-4885.359217,-76609.549800
10505.580197,-30348.443622,444.123565,-75996.673402
10505.582733,-23686.590144,15396.283594,-76303.111601
10505.585270,-1480.411884,-9622.677246,-76303.111601
10505.587806,10214.842000,-4293.194464,-75843.454302
10505.590343,15248.242405,19689.478057,-74158.044206
10505.592879,8882.471304,13915.871710,-75537.016103
10505.595416,-6217.729913,1628.453072,-76456.330700
10505.597953,-21317.931130,11843.295072,-75230.577904
10505.600489,-27979.784608,-1628.453072,-76915.987999
10505.603026,-18357.107362,-21169.889941,-77835.302597
10505.605562,-22502.260637,9030.512492,-77988.521696
10505.608099,740.205942,18357.107362,-76303.111601
10505.610636,12731.542202,-8290.306550,-72625.853210
10505.613172,-740.205942,-3849.070898,-72932.291410
10505.615709,-18653.189738,23242.466579,-75077.358804
10505.618245,-9918.759623,10658.965565,-76149.892501
10505.620782,-740.205942,-9622.677246,-77222.426198
10505.623318,-4737.318029,-4145.153275,-75996.673402
10505.625855,-18209.066173,12287.418637,-73698.386908
10505.628392,-14359.995275,10066.800811,-73851.606007
10505.630928,296.082377,-12139.377449,-75537.016103
10505.633465,7698.141797,20133.601622,-76915.987999
10505.636001,5477.523971,4145.153275,-76456.330700
10505.638538,-5477.523971,888.247130,-74924.139704
10505.641075,-22206.178260,17616.901420,-75690.235202
10505.643611,-15840.407159,-11251.130318,-76915.987999
10505.646148,-6957.935855,-2220.617826,-76456.330700
10505.648684,-3256.906145,-13027.624579,-78294.959896
10505.651196,12287.418637,14359.995275,-75537.016103
10505.653709,8734.430116,10807.006753,-75690.235202
10505.656221,27831.743419,-10362.883188,-75690.235202
10505.658733,2812.782580,4589.276840,-75690.235202
10505.661245,-22946.384202,8734.430116,-76456.330700
10505.663757,-14211.954086,-6513.812290,-76915.987999
10505.666270,-7698.141797,-5477.523971,-77988.521696
10505.668782,1924.535449,4885.359217,-77835.302597
10505.671294,-2516.700203,-10807.006753,-75537.016103
10505.673806,-21317.931130,-19245.354492,-76456.330700
10505.676318,-29164.114115,17468.860231,-75537.016103
10505.678831,-25611.125593,29904.320057,-77222.426198
10505.681343,-13175.665768,592.164754,-78601.398095
10505.683855,-148.041188,-25463.084405,-78907.836294
10505.686367,18505.148550,-21317.931130,-77835.302597
10505.688879,-10362.883188,0.000000,-75843.454302
10505.691391,-23390.507767,9030.512492,-75843.454302
10505.693904,4145.153275,-2960.823768,-75077.358804
10505.696416,16876.695478,-8586.388927,-77528.864398
10505.698928,-1924.535449,14211.954086,-77835.302597
10505.701440,12139.377449,-9178.553681,-77682.083497
10505.703952,-5329.482782,-14359.995275,-75690.235202
10505.706465,-26499.372724,9178.553681,-76609.549800
10505.708977,-22946.384202,-1776.494261,-76915.987999
10505.711489,-6513.812290,2812.782580,-75537.016103
10505.714001,6217.729913,6069.688724,-76456.330700
10505.716513,-11399.171507,16432.571912,-73545.167808
10505.719025,-3997.112087,20873.807564,-75690.235202
10505.721538,7698.141797,-8586.388927,-76303.111601
10505.724050,1036.288319,-17764.942608,-76609.549800
10505.726562,-20281.642811,12287.418637,-76915.987999
10505.729074,-24722.878463,5625.565159,-75383.797003
10505.731586,-12879.583391,15544.324782,-74311.263306
10505.734099,2516.700203,12731.542202,-75077.358804
10505.736611,9030.512492,-2516.700203,-74617.701505
10505.739123,-7550.100608,740.205942,-76456.330700
10505.741635,-10807.006753,-2664.741391,-77682.083497
10505.744147,-11991.336260,-5033.400406,-76456.330700
10505.746659,-6809.894666,4441.235652,-78448.178995
10505.749172,-4441.235652,14359.995275,-73391.948708
10505.751693,-9622.677246,0.000000,-74004.825107
10505.754215,-2664.741391,1332.370696,-74311.263306
10505.756736,-15100.201217,6809.894666,-76609.549800
10505.759257,-16876.695478,8142.265362,-78141.740796
10505.761779,-16284.530724,296.082377,-75996.673402
10505.764300,-22502.260637,6217.729913,-75077.358804
10505.766822,-12731.542202,7550.100608,-74617.701505
10505.769343,-296.082377,-4441.235652,-74311.263306
10505.771865,10066.800811,12139.377449,-76303.111601
10505.774386,4145.153275,-3701.029710,-77528.864398
10505.776908,-13915.871710,11991.336260,-75996.673402
10505.779429,-17468.860231,10955.047942,-76149.892501
10505.781951,-15692.365970,-7994.224174,-75843.454302
10505.784472,-10510.924376,-9474.636058,-76303.111601
10505.786994,-8882.471304,-16728.654289,-78754.617194
10505.789515,-3404.947333,19837.519246,-75996.673402
10505.792036,22946.384202,3404.947333,-76456.330700
10505.794558,20281.642811,-14804.118840,-75690.235202
10505.797079,-11843.295072,12139.377449,-75230.577904
10505.799601,-23390.507767,7994.224174,-76456.330700
10505.802122,-4737.318029,-7254.018232,-77069.207099
10505.804644,11991.336260,-5033.400406,-77988.521696
10505.807165,7698.141797,3404.947333,-76303.111601
10505.809687,-7550.100608,1036.288319,-73238.729609
10505.812208,-20133.601622,3404.947333,-74770.920605
10505.814730,-15840.407159,15248.242405,-76303.111601
10505.817251,1924.535449,23686.590144,-74617.701505
10505.819772,-1036.288319,-3108.864956,-78141.740796
10505.822294,-15988.448347,-25315.043216,-80133.589091
10505.824815,-26351.331535,10066.800811,-78448.178995
10505.827337,-2960.823768,6365.771101,-76915.987999
10505.829858,15100.201217,-19097.313304,-75537.016103
10505.832387,1776.494261,-148.041188,-76456.330700
10505.834916,-7105.977043,7254.018232,-76915.987999
10505.837444,-15988.448347,-2072.576638,-76762.768900
10505.839973,-7402.059420,13471.748144,-76915.987999
10505.842502,-9030.512492,4441.235652,-75843.454302
10505.845030,13027.624579,-13915.871710,-75230.577904
10505.847559,20429.683999,6513.812290,-76303.111601
10505.850088,-6217.729913,3552.988522,-77222.426198
10505.852617,-17024.736666,19541.436869,-75537.016103
10505.855145,-23538.548956,-5477.523971,-76609.549800
10505.857674,-36418.132346,-2368.659014,-75077.358804
10505.860203,-25463.084405,13175.665768,-74924.139704
10505.862731,2812.782580,-8586.388927,-76915.987999
10505.865260,18505.148550,-2368.659014,-76149.892501
10505.867789,-3108.864956,-2664.741391,-77069.207099
10505.870317,-25167.002028,10066.800811,-75230.577904
10505.872846,-25759.166782,7105.977043,-74617.701505
10505.875375,-22206.178260,18357.107362,-74464.482406
10505.877904,-14211.954086,9030.512492,-74464.482406
10505.880432,-8438.347739,13915.871710,-77375.645298
10505.882961,-9474.636058,2664.741391,-78601.398095
10505.885490,-20725.766376,-1628.453072,-77988.521696
10505.888018,-22502.260637,9770.718434,-77222.426198
10505.890547,-9622.677246,3552.988522,-73851.606007
10505.893076,-8882.471304,9326.594869,-75537.016103
10505.895604,-9918.759623,10807.006753,-77375.645298
10505.898133,-16580.613101,-888.247130,-76456.330700
10505.900662,-24574.837274,8586.388927,-76915.987999
10505.903190,-14063.912898,7550.100608,-74004.825107
10505.905719,-2220.617826,296.082377,-75077.358804
10505.908248,5625.565159,27387.619854,-74617.701505
10505.910777,21910.095883,2960.823768,-77375.645298
10505.913305,888.247130,-3849.070898,-77528.864398
10505.915834,-22206.178260,21910.095883,-75996.673402
10505.918363,-15692.365970,-13323.706956,-75230.577904
10505.920891,-11695.253884,-12731.542202,-76762.768900
10505.923420,-10955.047942,-5773.606348,-77222.426198
10505.925949,4885.359217,19097.313304,-75537.016103
10505.928477,31680.814318,1184.329507,-77528.864398
10505.931006,15100.201217,-14804.118840,-76762.768900
10505.933542,-24426.796086,20429.683999,-75230.577904
10505.936078,-24426.796086,11103.089130,-75230.577904
10505.938614,-11843.295072,-2516.700203,-75690.235202
10505.941149,7550.100608,-17320.819043,-79673.931792
10505.943685,2368.659014,-6217.729913,-77069.207099
10505.946221,-35381.844028,-4293.194464,-75077.358804
10505.948757,-28127.825796,14952.160028,-75537.016103
10505.951293,2960.823768,-7698.141797,-75230.577904
10505.953829,-1628.453072,-26055.249158,-77528.864398
10505.956364,-4145.153275,3404.947333,-75690.235202
10505.958900,-8142.265362,10362.883188,-77222.426198
10505.961436,15100.201217,-9770.718434,-77988.521696
10505.963972,11399.171507,-17172.777854,-76303.111601
10505.966508,-18653.189738,10807.006753,-75690.235202
10505.969043,-7550.100608,7105.977043,-75077.358804
10505.971579,-5773.606348,16432.571912,-74924.139704
10505.974115,31680.814318,6217.729913,-77069.207099
10505.976651,15100.201217,-15100.201217,-77682.083497
10505.979187,-17616.901420,-6217.729913,-76609.549800
10505.981723,-30644.525999,-3997.112087,-75230.577904
10505.984258,-22354.219448,6809.894666,-75383.797003
10505.986794,-296.082377,20281.642811,-76915.987999
10505.989330,1480.411884,23538.548956,-74004.825107
10505.991866,13915.871710,12879.583391,-74770.920605
10505.994402,1480.411884,-7105.977043,-77528.864398
10505.996938,-18209.066173,-2960.823768,-76456.330700
10505.999473,-25907.207970,12583.501014,-77835.302597
10506.002009,-22798.343014,11843.295072,-75383.797003
10506.004545,-13619.789333,15248.242405,-74617.701505
10506.007081,2516.700203,9030.512492,-75843.454302
10506.009617,3552.988522,-4145.153275,-75843.454302
10506.012152,-17764.942608,5921.647536,-75383.797003
10506.014688,-18801.230927,-8438.347739,-76149.892501
10506.017224,-4885.359217,6661.853478,-79367.493593
10506.019760,-13471.748144,11251.130318,-78448.178995
10506.022296,-19541.436869,8290.306550,-75843.454302
10506.024832,-11695.253884,592.164754,-74004.825107
10506.027367,-6217.729913,4885.359217,-75690.235202
10506.029903,-3108.864956,15692.365970,-75843.454302
10506.032439,-9326.594869,-2368.659014,-77528.864398
10506.034980,-16876.695478,1628.453072,-77222.426198
10506.037522,-18357.107362,7846.182985,-73851.606007
10506.040063,-16580.613101,-2368.659014,-75690.235202
10506.042604,11399.171507,29460.196492,-73698.386908
10506.045145,20577.725188,-740.205942,-75843.454302
10506.047687,-2516.700203,2220.617826,-77222.426198
10506.050228,-23242.466579,18505.148550,-76762.768900
10506.052769,-17320.819043,-9770.718434,-76149.892501
10506.055310,-6513.812290,-8290.306550,-76456.330700
10506.057852,-4441.235652,-14508.036463,-76915.987999
10506.060393,9474.636058,20133.601622,-74617.701505
10506.062934,26203.290347,-2812.782580,-76456.330700
10506.065475,25463.084405,-12139.377449,-75843.454302
10506.068017,0.000000,0.000000,-75843.454302
10506.070558,-22058.137072,12731.542202,-75537.016103
10506.073099,-6809.894666,-5773.606348,-76149.892501
10506.075640,7105.977043,-22946.384202,-79061.055394
10506.078182,-8142.265362,13175.665768,-75996.673402
10506.080723,-14952.160028,18061.024985,-75383.797003
10506.083264,7846.182985,13767.830521,-75230.577904
10506.085805,8142.265362,1480.411884,-72166.195912
10506.088347,0.000000,9474.636058,-74770.920605
10506.090888,5773.606348,5181.441594,-77682.083497
10506.093429,3108.864956,-34937.720462,-78448.178995
10506.095970,592.164754,-7994.224174,-77222.426198
10506.098511,-8734.430116,12731.542202,-75383.797003
10506.101053,-2664.741391,3701.029710,-74770.920605
10506.103594,8586.388927,-3404.947333,-76609.549800
10506.106135,-14063.912898,-29756.278868,-79827.150892
10506.108676,-35381.844028,10066.800811,-77222.426198
10506.111218,-8290.306550,3256.906145,-76303.111601
10506.113759,19097.313304,-22798.343014,-74617.701505
10506.116300,18801.230927,9326.594869,-75843.454302
10506.118841,-15692.365970,7698.141797,-76149.892501
10506.121383,-18801.230927,21465.972318,-75690.235202
10506.123924,-26055.249158,-8882.471304,-77988.521696
10506.126465,-32717.102636,6365.771101,-75843.454302
10506.129006,-35529.885216,10066.800811,-76303.111601
10506.131548,-18653.189738,-2368.659014,-75230.577904
10506.134089,7698.141797,-3701.029710,-74924.139704
10506.136635,-740.205942,-3701.029710,-77682.083497
10506.139181,-20133.601622,21762.054695,-75383.797003
10506.141727,-11399.171507,12139.377449,-75230.577904
10506.144273,3108.864956,6809.894666,-74617.701505
10506.146820,9622.677246,13175.665768,-72932.291410
10506.149366,444.123565,3256.906145,-76609.549800
10506.151912,-2960.823768,4145.153275,-76915.987999
10506.154458,-25611.125593,6809.894666,-77222.426198
10506.157004,-15988.448347,9030.512492,-73085.510509
10506.159550,-8290.306550,5329.482782,-74770.920605
10506.162096,3108.864956,22354.219448,-74617.701505
10506.164643,-2220.617826,2220.617826,-75996.673402
10506.167189,-13323.706956,-5181.441594,-77375.645298
10506.169735,-15544.324782,8734.430116,-75690.235202
10506.172281,-18505.148550,2812.782580,-74770.920605
10506.174827,6513.812290,25463.084405,-73391.948708
10506.177373,20281.642811,-6957.935855,-76915.987999
10506.179919,-3997.112087,4293.194464,-76303.111601
10506.182465,-30644.525999,22354.219448,-76915.987999
10506.185012,-16580.613101,-10955.047942,-76456.330700
10506.187558,-1184.329507,-14804.118840,-77222.426198
10506.190104,-5625.565159,-14508.036463,-78448.178995
10506.192650,-20577.725188,17172.777854,-76915.987999
10506.195196,5773.606348,11843.295072,-76915.987999
10506.197742,23094.425390,-9474.636058,-76149.892501
10506.200288,740.205942,3849.070898,-76149.892501
10506.202835,-20429.683999,11399.171507,-75537.016103
10506.205381,-4737.318029,-11103.089130,-75996.673402
10506.207927,148.041188,-25315.043216,-77835.302597
10506.210473,-2072.576638,5773.606348,-77528.864398
10506.213019,-10658.965565,3404.947333,-75383.797003
10506.215565,-9030.512492,5033.400406,-74617.701505
10506.218111,-5625.565159,8142.265362,-75077.358804
10506.220658,7846.182985,-2072.576638,-76609.549800
10506.223204,-1332.370696,-8438.347739,-78907.836294
10506.225750,-4441.235652,-11399.171507,-78141.740796
10506.228296,-4293.194464,-1776.494261,-76149.892501
10506.230842,4885.359217,1776.494261,-75383.797003
10506.233388,3552.988522,2072.576638,-74464.482406
10506.235934,-2220.617826,15100.201217,-75843.454302
10506.238484,25463.084405,-6661.853478,-77988.521696
10506.241034,1184.329507,-16136.489536,-77528.864398
10506.243584,-26351.331535,-1184.329507,-77528.864398
10506.246134,-26499.372724,-3256.906145,-75383.797003
10506.248683,-11991.336260,-888.247130,-74924.139704
10506.251233,-740.205942,11103.089130,-76149.892501
10506.253783,-592.164754,32421.020260,-74311.263306
10506.256333,-1924.535449,21169.889941,-75996.673402
10506.258882,15100.201217,-11399.171507,-75537.016103
10506.261432,2960.823768,-16876.695478,-75843.454302
10506.263982,-23686.590144,13915.871710,-76609.549800
10506.266532,-20873.807564,11991.336260,-74924.139704
10506.269081,7846.182985,5181.441594,-75230.577904
10506.271631,-888.247130,6661.853478,-76149.892501
10506.274181,-15396.283594,6217.729913,-76609.549800
10506.276731,-29904.320057,-7105.977043,-76915.987999
10506.279281,-28423.908173,-15840.407159,-77069.207099
10506.281830,-6809.894666,27683.702231,-77682.083497
10506.284380,-3997.112087,27387.619854,-77682.083497
10506.286930,-17912.983796,3997.112087,-75690.235202
10506.289480,-4737.318029,-2516.700203,-73851.606007
10506.292029,-2072.576638,21317.931130,-74464.482406
10506.294579,-5773.606348,10066.800811,-75383.797003
10506.297129,-11399.171507,-4293.194464,-77682.083497
10506.299679,-8438.347739,1628.453072,-75690.235202
10506.302228,-15544.324782,6661.853478,-73698.386908
10506.304778,-444.123565,14211.954086,-75230.577904
10506.307328,5477.523971,-15100.201217,-76456.330700
10506.309878,-17172.777854,14063.912898,-76456.330700
10506.312428,-26647.413912,23834.631332,-77222.426198
10506.314977,-7105.977043,-16432.571912,-76762.768900
10506.317527,-1184.329507,-10658.965565,-76915.987999
10506.320077,-5625.565159,-17172.777854,-77069.207099
10506.322627,-3552.988522,22502.260637,-75843.454302
10506.325176,22206.178260,1332.370696,-77222.426198
10506.327726,14952.160028,-9474.636058,-77069.207099
10506.330276,-16876.695478,21614.013506,-75996.673402
10506.332826,-19837.519246,3552.988522,-76609.549800
10506.335375,-4293.194464,-19541.436869,-77069.207099
10506.337925,-5181.441594,-14359.995275,-78448.178995
10506.340478,444.123565,13471.748144,-76609.549800
10506.343032,15544.324782,6513.812290,-73851.606007
10506.345585,13323.706956,148.041188,-74464.482406
10506.348138,12139.377449,11547.212695,-73238.729609
10506.350691,-4145.153275,-5773.606348,-77528.864398
10506.353245,-5329.482782,-7994.224174,-78754.617194
10506.355798,-9178.553681,-5773.606348,-79367.493593
10506.358351,-5033.400406,6661.853478,-77222.426198
10506.360904,3701.029710,3256.906145,-74770.920605
10506.363457,740.205942,-4885.359217,-75690.235202
10506.366011,-13027.624579,5921.647536,-76915.987999
10506.368564,-1332.370696,17320.819043,-76762.768900
10506.371117,15544.324782,-18061.024985,-78907.836294
10506.373670,7550.100608,-20429.683999,-77528.864398
10506.376224,-13619.789333,0.000000,-75230.577904
10506.378777,-32717.102636,10658.965565,-72779.072310
10506.381330,-27387.619854,23390.507767,-75077.358804
10506.383883,-27831.743419,-296.082377,-77069.207099
10506.386436,-22798.343014,5181.441594,-76915.987999
10506.388990,-7994.224174,5477.523971,-75690.235202
10506.391543,4589.276840,-18801.230927,-74770.920605
10506.394096,5625.565159,-296.082377,-75230.577904
10506.396649,-12583.501014,23390.507767,-74924.139704
10506.399203,1036.288319,18801.230927,-74770.920605
10506.401756,-2220.617826,-1480.411884,-76762.768900
10506.404309,-17912.983796,3997.112087,-76915.987999
10506.406862,-148.041188,20725.766376,-74158.044206
10506.409415,888.247130,-6513.812290,-74770.920605
10506.411969,17616.901420,-3404.947333,-75843.454302
10506.414522,-2516.700203,2664.741391,-74924.139704
10506.417075,-13915.871710,10807.006753,-74004.825107
10506.419628,-5921.647536,22946.384202,-72779.072310
10506.422182,3552.988522,-2220.617826,-75996.673402
10506.424735,-7402.059420,3404.947333,-77835.302597
10506.427288,-35381.844028,12435.459826,-78141.740796
10506.429841,-28571.949361,6513.812290,-75690.235202
10506.432394,4441.235652,-13471.748144,-75077.358804
10506.434948,-15840.407159,-8734.430116,-75383.797003
10506.437501,-18505.148550,25315.043216,-75690.235202
10506.440054,1628.453072,10510.924376,-75843.454302
10506.442581,9030.512492,-10955.047942,-77069.207099
10506.445108,-1184.329507,-10955.047942,-77069.207099
10506.447635,-10955.047942,-7402.059420,-76456.330700
10506.450162,11843.295072,148.041188,-75690.235202
10506.452689,14211.954086,-19985.560434,-77222.426198
10506.455216,-7550.100608,11547.212695,-76609.549800
10506.457743,-17912.983796,32124.937883,-76149.892501
10506.460270,3256.906145,-19097.313304,-74924.139704
10506.462797,-592.164754,-7550.100608,-76456.330700
10506.465324,-8586.388927,1776.494261,-78754.617194
10506.467851,-5773.606348,2664.741391,-77528.864398
10506.470378,18061.024985,3108.864956,-75077.358804
10506.472905,-444.123565,-3404.947333,-76149.892501
10506.475432,2960.823768,17320.819043,-73545.167808
10506.477959,-11399.171507,6217.729913,-76609.549800
10506.480486,-444.123565,-7698.141797,-77069.207099
10506.483013,740.205942,-13471.748144,-79367.493593
10506.485540,-6809.894666,9474.636058,-78294.959896
10506.488066,-148.041188,12879.583391,-73851.606007
10506.490593,9326.594869,-6069.688724,-74311.263306
10506.493120,-12583.501014,-15100.201217,-77682.083497
10506.495647,-22946.384202,15248.242405,-77988.521696
10506.498174,3849.070898,-6661.853478,-77375.645298
10506.500701,16876.695478,-27239.578666,-77375.645298
10506.503228,8734.430116,3997.112087,-75690.235202
10506.505755,-25463.084405,14804.118840,-73085.510509
10506.508282,-18653.189738,21910.095883,-75077.358804
10506.510809,-16728.654289,-4885.359217,-76762.768900
10506.513336,-28275.866984,-2220.617826,-76762.768900
10506.515863,-23094.425390,13915.871710,-76303.111601
10506.518390,-3108.864956,-11695.253884,-75077.358804
10506.520917,12731.542202,-10066.800811,-75537.016103
10506.523444,-5773.606348,19837.519246,-74924.139704
10506.525971,1924.535449,23390.507767,-75383.797003
10506.528498,-4293.194464,1036.288319,-76456.330700
10506.531025,-8586.388927,8734.430116,-75996.673402
10506.533552,-444.123565,29164.114115,-74311.263306
10506.536079,1628.453072,-12583.501014,-76303.111601
10506.538606,-7698.141797,-1184.329507,-77682.083497
10506.541133,-20281.642811,13323.706956,-75230.577904
10506.543668,-10214.842000,8438.347739,-73391.948708
10506.546202,-12879.583391,-7105.977043,-74770.920605
10506.548737,-17764.942608,6809.894666,-76303.111601
10506.551272,-13767.830521,9474.636058,-77069.207099
10506.553807,740.205942,-3701.029710,-76609.549800
10506.556342,-5773.606348,296.082377,-74311.263306
10506.558876,-14211.954086,28127.825796,-73238.729609
10506.561411,6957.935855,6513.812290,-76149.892501
10506.563946,7550.100608,-2072.576638,-77528.864398
10506.566481,-11695.253884,7698.141797,-77069.207099
10506.569016,-17764.942608,1480.411884,-76915.987999
10506.571551,-6809.894666,-10362.883188,-75230.577904
10506.574085,-2664.741391,-23390.507767,-77375.645298
10506.576620,-20429.683999,14508.036463,-76303.111601
10506.579155,-1480.411884,9178.553681,-77682.083497
10506.581690,13471.748144,-5181.441594,-76456.330700
10506.584225,888.247130,-7254.018232,-76149.892501
10506.586759,-14359.995275,8586.388927,-75537.016103
10506.589294,-6957.935855,-7994.224174,-76149.892501
10506.591829,-1924.535449,-22206.178260,-77835.302597
10506.594364,-16136.489536,-4737.318029,-79214.274493
10506.596899,-22650.301825,1184.329507,-76915.987999
10506.599434,-15988.448347,4885.359217,-76915.987999
10506.601968,5181.441594,-4737.318029,-74617.701505
10506.604503,4589.276840,-18801.230927,-77988.521696
10506.607038,-888.247130,3108.864956,-79214.274493
10506.609573,-9770.718434,-6365.771101,-77835.302597
10506.612108,3849.070898,-148.041188,-74770.920605
10506.614642,12287.418637,888.247130,-74004.825107
10506.617177,-15248.242405,-10066.800811,-77222.426198
10506.619712,-25315.043216,13471.748144,-77835.302597
10506.622247,6069.688724,-11695.253884,-77528.864398
10506.624782,16284.530724,-24870.919651,-77375.645298
10506.627317,6809.894666,1184.329507,-77222.426198
10506.629851,-23686.590144,9770.718434,-73085.510509
10506.632386,-22058.137072,19541.436869,-74004.825107
10506.634921,-28127.825796,-4145.153275,-76762.768900
10506.637456,-31088.649564,5773.606348,-77222.426198
10506.639991,-17616.901420,10955.047942,-76149.892501
10506.642525,1924.535449,-15840.407159,-74311.263306
10506.645066,9770.718434,-8438.347739,-75690.235202
10506.647607,-7254.018232,16136.489536,-75843.454302
10506.650148,-1332.370696,11695.253884,-75383.797003
10506.652689,-11103.089130,7105.977043,-75383.797003
10506.655230,-22650.301825,13027.624579,-74924.139704
10506.657771,-9030.512492,29756.278868,-75077.358804
10506.660312,-11547.212695,-21910.095883,-79061.055394
10506.662853,-19245.354492,-26943.496289,-79367.493593
10506.665394,-22058.137072,13323.706956,-72779.072310
10506.667935,-16580.613101,40563.285622,-72012.976812
10506.670476,7105.977043,9178.553681,-74158.044206
10506.673017,3404.947333,-14804.118840,-77835.302597
10506.675558,-25759.166782,7846.182985,-78294.959896
10506.678099,-30644.525999,5477.523971,-75690.235202
10506.680640,-4737.318029,-10955.047942,-74770.920605
10506.683181,-21614.013506,-3997.112087,-74770.920605
10506.685722,-18061.024985,24278.754898,-75690.235202
10506.688263,7846.182985,14656.077652,-75996.673402
10506.690804,16136.489536,-15100.201217,-77835.302597
10506.693345,2220.617826,1480.411884,-76915.987999
10506.695886,-9770.718434,-5477.523971,-76303.111601
10506.698427,1776.494261,-26795.455100,-76762.768900
10506.700968,-6365.771101,-15988.448347,-77069.207099
10506.703509,-19985.560434,12139.377449,-76915.987999
10506.706050,-10510.924376,26943.496289,-75690.235202
10506.708590,10807.006753,-19097.313304,-75690.235202
10506.711131,-1776.494261,-7402.059420,-76149.892501
10506.713672,-14804.118840,296.082377,-77069.207099
10506.716213,2072.576638,1628.453072,-75690.235202
10506.718754,17616.901420,12583.501014,-74617.701505
10506.721295,11843.295072,-9326.594869,-74770.920605
10506.723836,-10955.047942,592.164754,-74770.920605
10506.726377,-14952.160028,5921.647536,-76609.549800
10506.728918,3997.112087,-10807.006753,-77528.864398
10506.731459,6809.894666,-10362.883188,-78601.398095
10506.734000,-1628.453072,-7402.059420,-77375.645298
10506.736541,-10658.965565,3404.947333,-74464.482406
10506.739082,-6661.853478,17024.736666,-73391.948708
10506.741623,18949.272115,16432.571912,-77375.645298
10506.744164,21317.931130,-18949.272115,-79980.369991
10506.746710,-4145.153275,-10066.800811,-77988.521696
10506.749256,-25611.125593,-3256.906145,-75077.358804
10506.751803,-27535.661042,4145.153275,-73391.948708
10506.754349,-5477.523971,15544.324782,-74924.139704
10506.756895,-4441.235652,28275.866984,-73545.167808
10506.759442,14359.995275,18209.066173,-75690.235202
10506.761988,2516.700203,-12435.459826,-77682.083497
10506.764534,14063.912898,-21169.889941,-75077.358804
10506.767080,-8734.430116,12139.377449,-75843.454302
10506.769627,-19837.519246,11843.295072,-74464.482406
10506.772173,-21762.054695,-3701.029710,-75230.577904
10506.774719,-17320.819043,18653.189738,-76149.892501
10506.777265,5033.400406,16284.530724,-75230.577904
10506.779812,21614.013506,10955.047942,-74311.263306
10506.782358,5477.523971,-22354.219448,-76456.330700
10506.784904,-14952.160028,-19541.436869,-79367.493593
10506.787450,-26203.290347,14952.160028,-77375.645298
10506.789997,-11695.253884,20577.725188,-72779.072310
10506.792543,9030.512492,2812.782580,-73238.729609
10506.795089,-1332.370696,-11695.253884,-77682.083497
10506.797635,-13471.748144,-1332.370696,-78294.959896
10506.800182,-21021.848753,8142.265362,-75383.797003
10506.802728,-3256.906145,-5181.441594,-74770.920605
10506.805274,-15840.407159,-11399.171507,-75383.797003
10506.807820,-25167.002028,21762.054695,-75690.235202
10506.810367,-8438.347739,20577.725188,-76303.111601
10506.812913,8882.471304,-13767.830521,-77528.864398
10506.815459,8438.347739,-148.041188,-77222.426198
10506.818005,-5033.400406,-9474.636058,-76456.330700
10506.820552,2368.659014,-26647.413912,-76762.768900
10506.823098,-20281.642811,444.123565,-76303.111601
10506.825644,-12583.501014,15988.448347,-77528.864398
10506.828190,-10658.965565,28868.031738,-76762.768900
10506.830737,4737.318029,-18949.272115,-75383.797003
10506.833283,-1924.535449,-10066.800811,-76456.330700
10506.835829,-8734.430116,740.205942,-76456.330700
10506.838375,-17024.736666,-3997.112087,-77375.645298
10506.840922,-8142.265362,9030.512492,-76456.330700
10506.843468,-3256.906145,-7698.141797,-76456.330700
10506.846014,-13767.830521,-8438.347739,-75690.235202
10506.848565,-1776.494261,-2664.741391,-75537.016103
10506.851116,3552.988522,-2664.741391,-77835.302597
10506.853667,5477.523971,-2664.741391,-77682.083497
10506.856218,1924.535449,-7994.224174,-76149.892501
10506.858768,-1036.288319,7698.141797,-74770.920605
10506.861319,-12287.418637,-26795.455100,-77528.864398
10506.863870,-26795.455100,3997.112087,-78141.740796
10506.866421,-8734.430116,7105.977043,-78141.740796
10506.868972,18505.148550,-10807.006753,-75690.235202
10506.871522,19541.436869,-7254.018232,-75230.577904
10506.874073,-21317.931130,6513.812290,-75383.797003
10506.876624,-28571.949361,26203.290347,-74617.701505
10506.879175,-31532.773129,-6217.729913,-77069.207099
10506.881726,-30792.567187,6661.853478,-77069.207099
10506.884277,-9918.759623,13175.665768,-75996.673402
10506.886827,11399.171507,-17912.983796,-74770.920605
10506.889378,12435.459826,-11399.171507,-74770.920605
10506.891929,3997.112087,6217.729913,-75996.673402
10506.894480,-9326.594869,8290.306550,-75996.673402
10506.897031,-21465.972318,10362.883188,-76303.111601
10506.899582,-3256.906145,9178.553681,-76149.892501
10506.902132,-3849.070898,6661.853478,-74158.044206
10506.904683,12435.459826,14656.077652,-74617.701505
10506.907234,6809.894666,6069.688724,-74158.044206
10506.909785,-2220.617826,9770.718434,-72166.195912
10506.912336,-3997.112087,15396.283594,-73238.729609
10506.914886,-9918.759623,-2812.782580,-75996.673402
10506.917437,-14063.912898,5477.523971,-78294.959896
10506.919988,-26795.455100,10807.006753,-79367.493593
10506.922539,-9178.553681,-6513.812290,-73851.606007
10506.925090,-28275.866984,7846.182985,-72012.976812
10506.927641,-10066.800811,14063.912898,-74770.920605
10506.930191,7105.977043,3997.112087,-76303.111601
10506.932742,6809.894666,148.041188,-77988.521696
10506.935293,740.205942,1036.288319,-77988.521696
10506.937844,-1036.288319,-12287.418637,-75996.673402
10506.940395,-888.247130,-22650.301825,-77069.207099
10506.942946,-18357.107362,15396.283594,-74770.920605
10506.945496,3849.070898,11843.295072,-76609.549800
10506.948047,14952.160028,-1776.494261,-76915.987999
10506.950602,-296.082377,-1776.494261,-76456.330700
10506.953157,-4145.153275,-444.123565,-75996.673402
10506.955712,-6217.729913,-2812.782580,-75690.235202
10506.958266,-15100.201217,-14804.118840,-78754.617194
10506.960821,-17616.901420,9770.718434,-77069.207099
10506.963376,-14804.118840,592.164754,-77835.302597
10506.965931,-28275.866984,296.082377,-77222.426198
10506.968485,-8142.265362,-4441.235652,-76762.768900
10506.971040,2516.700203,-4441.235652,-79673.931792
10506.973595,5181.441594,888.247130,-78907.836294
10506.976150,1776.494261,-8142.265362,-75996.673402
10506.978705,-3256.906145,-1332.370696,-73698.386908
10506.981259,-10362.883188,-18357.107362,-76915.987999
10506.983814,-21762.054695,5477.523971,-77375.645298
10506.986369,-21021.848753,9178.553681,-79367.493593
10506.988924,-7698.141797,-444.123565,-75843.454302
10506.991479,6957.935855,2812.782580,-74158.044206
10506.994033,-4145.153275,-1184.329507,-74924.139704
10506.996588,-13027.624579,19541.436869,-74004.825107
10506.999143,-18061.024985,-148.041188,-77528.864398
10507.001698,-31828.855506,444.123565,-76915.987999
10507.004252,-27535.661042,13915.871710,-75996.673402
10507.006807,-6661.853478,-8438.347739,-75996.673402
10507.009362,12287.418637,-12435.459826,-74464.482406
10507.011917,-1776.494261,7402.059420,-74770.920605
10507.014472,-23686.590144,9178.553681,-76609.549800
10507.017026,-19245.354492,10214.842000,-75383.797003
10507.019581,-25759.166782,20873.807564,-76609.549800
10507.022136,4589.276840,14063.912898,-74924.139704
10507.024691,6069.688724,-3552.988522,-75230.577904
10507.027246,-6217.729913,-3256.906145,-76609.549800
10507.029800,-11251.130318,-3256.906145,-73391.948708
10507.032360,-28275.866984,15100.201217,-73545.167808
10507.034917,-16876.695478,20873.807564,-76303.111601
10507.037474,1332.370696,-6809.894666,-77222.426198
10507.040032,-9622.677246,-1184.329507,-77222.426198
10507.042589,-11399.171507,-148.041188,-76609.549800
10507.045147,-21317.931130,-8290.306550,-72932.291410
10507.047704,-26499.372724,17616.901420,-74464.482406
10507.050261,-21614.013506,25907.207970,-76609.549800
10507.052819,-13471.748144,-10658.965565,-79061.055394
10507.055376,740.205942,-12435.459826,-77988.521696
10507.057934,4589.276840,-16728.654289,-75996.673402
10507.060491,14656.077652,-4885.359217,-75537.016103
10507.063048,5181.441594,-10510.924376,-76915.987999
10507.065606,-12139.377449,7550.100608,-76456.330700
10507.068163,-19541.436869,26203.290347,-76762.768900
10507.070721,-4293.194464,-13619.789333,-76762.768900
10507.073278,-2664.741391,-8734.430116,-77069.207099
10507.075835,-4885.359217,4589.276840,-76762.768900
10507.078393,13767.830521,2664.741391,-75537.016103
10507.080950,10510.924376,3552.988522,-73698.386908
10507.083508,16284.530724,1776.494261,-71706.538613
10507.086065,0.000000,592.164754,-75383.797003
10507.088622,-4441.235652,-5625.565159,-77375.645298
10507.091180,-3256.906145,-3108.864956,-78907.836294
10507.093737,-148.041188,-2368.659014,-78448.178995
10507.096295,888.247130,2516.700203,-75230.577904
10507.098852,-20577.725188,-7550.100608,-73698.386908
10507.101409,-17764.942608,12879.583391,-77528.864398
10507.103967,18357.107362,-3256.906145,-77835.302597
10507.106524,24130.713709,-26647.413912,-78754.617194
10507.109082,2072.576638,-5181.441594,-77375.645298
10507.111639,-34937.720462,7550.100608,-72319.415011
10507.114196,-32569.061448,20133.601622,-74158.044206
10507.116754,-39823.079680,4737.318029,-76149.892501
10507.119311,-29460.196492,9622.677246,-77375.645298
10507.121869,-2960.823768,8142.265362,-76762.768900
10507.124426,14063.912898,-20429.683999,-75077.358804
10507.126983,5773.606348,-1924.535449,-75077.358804
10507.129541,-11991.336260,11843.295072,-75383.797003
10507.132098,-11843.295072,22502.260637,-74004.825107
10507.134658,18949.272115,23538.548956,-73391.948708
10507.137218,4737.318029,12287.418637,-76149.892501
10507.139777,-3404.947333,1776.494261,-77528.864398
10507.142337,7105.977043,-11843.295072,-75690.235202
10507.144897,10510.924376,14508.036463,-72472.634111
10507.147456,-2960.823768,5033.400406,-72779.072310
10507.150016,-18949.272115,3997.112087,-74464.482406
10507.152576,-18061.024985,14508.036463,-75230.577904
10507.155135,-8142.265362,11695.253884,-77528.864398
10507.157695,-13471.748144,-5921.647536,-78448.178995
10507.160255,-3108.864956,10362.883188,-75230.577904
10507.162814,-4293.194464,-6661.853478,-72625.853210
10507.165374,-23686.590144,6217.729913,-74158.044206
10507.167934,-25759.166782,29016.072926,-77069.207099
10507.170493,-1480.411884,-15840.407159,-78601.398095
10507.173053,7994.224174,-14211.954086,-78754.617194
10507.175613,-592.164754,-20281.642811,-76149.892501
10507.178172,8882.471304,8290.306550,-74924.139704
10507.180732,15396.283594,-5625.565159,-75690.235202
10507.183292,-3849.070898,1184.329507,-76762.768900
10507.185851,-23686.590144,29608.237680,-77835.302597
10507.188411,-12583.501014,-7994.224174,-77069.207099
10507.190971,-2960.823768,-8734.430116,-76762.768900
10507.193530,-11251.130318,-11547.212695,-78448.178995
10507.196090,-24278.754898,5921.647536,-76456.330700
10507.198650,-5329.482782,39675.038491,-74617.701505
10507.201209,31384.731941,-7846.182985,-72012.976812
10507.203769,10510.924376,-31828.855506,-74311.263306
10507.206329,-16728.654289,5625.565159,-77835.302597
10507.208888,-21021.848753,7698.141797,-78754.617194
10507.211448,-5625.565159,-1332.370696,-75690.235202
10507.214008,19837.519246,5477.523971,-73698.386908
10507.216567,34937.720462,-7550.100608,-75230.577904
10507.219127,-8290.306550,-7254.018232,-76762.768900
10507.221687,-27091.537477,8290.306550,-78448.178995
10507.224246,-18949.272115,-740.205942,-78601.398095
10507.226806,3849.070898,4589.276840,-76149.892501
10507.229366,1480.411884,-592.164754,-74770.920605
10507.231925,-11991.336260,9178.553681,-73238.729609
10507.234485,-13767.830521,7402.059420,-76915.987999
10507.237047,-29312.155303,7698.141797,-76149.892501
10507.239608,-30792.567187,3701.029710,-78754.617194
10507.242170,-27091.537477,2072.576638,-75690.235202
10507.244731,-7402.059420,-8438.347739,-74311.263306
10507.247293,3404.947333,9326.594869,-74004.825107
10507.249855,-5033.400406,28719.990550,-74158.044206
10507.252416,12583.501014,26943.496289,-75537.016103
10507.254978,18653.189738,-4441.235652,-77222.426198
10507.257540,1036.288319,-13175.665768,-74464.482406
10507.260101,-3108.864956,32421.020260,-76149.892501
10507.262663,0.000000,14211.954086,-73391.948708
10507.265225,-4293.194464,-1036.288319,-71859.757712
10507.267786,-21021.848753,16580.613101,-73698.386908
10507.270348,-21614.013506,3552.988522,-76609.549800
10507.272910,-18209.066173,6513.812290,-79367.493593
10507.275471,-3256.906145,-9474.636058,-77528.864398
10507.278033,-18209.066173,-13175.665768,-74617.701505
10507.280594,-27091.537477,21169.889941,-72779.072310
10507.283156,-13323.706956,15396.283594,-74770.920605
10507.285718,2368.659014,-10807.006753,-77835.302597
10507.288279,2368.659014,740.205942,-79520.712692
10507.290841,1332.370696,-7105.977043,-78141.740796
10507.293403,14952.160028,-31680.814318,-76456.330700
10507.295964,-16876.695478,-2220.617826,-75690.235202
10507.298526,-12287.418637,20429.683999,-76303.111601
10507.301088,7698.141797,7698.141797,-75537.016103
10507.303649,-2072.576638,-15544.324782,-77375.645298
10507.306211,-3552.988522,-888.247130,-76609.549800
10507.308772,-12583.501014,-10807.006753,-78141.740796
10507.311334,-25018.960840,-21169.889941,-78601.398095
10507.313896,-17616.901420,7402.059420,-76303.111601
10507.316457,-4737.318029,-2664.741391,-74311.263306
10507.319019,1036.288319,-444.123565,-73391.948708
10507.321581,-4145.153275,5329.482782,-77835.302597
10507.324142,-444.123565,-10362.883188,-79980.369991
10507.326704,-148.041188,-16432.571912,-78754.617194
10507.329266,-2664.741391,3256.906145,-74924.139704
10507.331827,4293.194464,-12731.542202,-75383.797003
10507.334389,-11103.089130,-2664.741391,-74924.139704
10507.336950,-11251.130318,-4589.276840,-79980.369991
10507.339514,-26055.249158,-2368.659014,-79061.055394
10507.342077,-11991.336260,5033.400406,-75537.016103
10507.344640,888.247130,-2072.576638,-73851.606007
10507.347204,-9030.512492,15248.242405,-72779.072310
10507.349767,-4293.194464,13471.748144,-76456.330700
10507.352330,-19541.436869,3552.988522,-76762.768900
10507.354894,-26203.290347,7994.224174,-77528.864398
10507.357457,-16580.613101,1332.370696,-76456.330700
10507.360020,-2664.741391,-9030.512492,-75537.016103
10507.362584,-4441.235652,4737.318029,-74617.701505
10507.365147,-10362.883188,16728.654289,-75843.454302
10507.367710,1184.329507,6069.688724,-76149.892501
10507.370274,-3108.864956,1924.535449,-76915.987999
10507.372837,-9474.636058,-4293.194464,-78294.959896
10507.375400,-10066.800811,-4441.235652,-78754.617194
10507.377964,-16876.695478,15544.324782,-74004.825107
10507.380527,-8142.265362,14508.036463,-70634.004916
10507.383090,-5329.482782,7698.141797,-72472.634111
10507.385654,-12435.459826,7402.059420,-76762.768900
10507.388217,-19985.560434,4145.153275,-79827.150892
10507.390780,-1776.494261,6217.729913,-77375.645298
10507.393344,888.247130,-14359.995275,-74004.825107
10507.395907,-23982.672521,13471.748144,-72472.634111
10507.398470,-25463.084405,27831.743419,-74158.044206
10507.401034,-15396.283594,0.000000,-78754.617194
10507.403597,8142.265362,-12139.377449,-78601.398095
10507.406160,2664.741391,-19245.354492,-77375.645298
10507.408724,4885.359217,2812.782580,-75843.454302
10507.411287,9622.677246,-16136.489536,-74311.263306
10507.413850,-8734.430116,6069.688724,-75690.235202
10507.416414,-20133.601622,30348.443622,-77835.302597
10507.418977,-10658.965565,-12583.501014,-78141.740796
10507.421540,-5773.606348,-5921.647536,-77682.083497
10507.424104,7254.018232,7698.141797,-75537.016103
10507.426667,12435.459826,9770.718434,-75843.454302
10507.429230,13619.789333,-7105.977043,-75077.358804
10507.431794,1924.535449,-8882.471304,-72472.634111
10507.434357,2072.576638,-12731.542202,-75537.016103
10507.436920,-7846.182985,2368.659014,-79673.931792
10507.439484,-2664.741391,-6957.935855,-79673.931792
10507.442048,10955.047942,-10362.883188,-76762.768900
10507.444612,-10066.800811,-17024.736666,-74617.701505
10507.447175,-28423.908173,13767.830521,-75077.358804
10507.449739,1628.453072,2516.700203,-76303.111601
10507.452303,24426.796086,-21021.848753,-78141.740796
10507.454867,14952.160028,-7994.224174,-79827.150892
10507.457431,-28127.825796,10214.842000,-73698.386908
10507.459995,-25315.043216,20281.642811,-71400.100414
10507.462559,-37750.503042,-2516.700203,-74924.139704
10507.465123,-27535.661042,9622.677246,-76915.987999
10507.467687,-4589.276840,12139.377449,-77528.864398
10507.470251,8882.471304,-13323.706956,-75843.454302
10507.472815,9178.553681,-296.082377,-73851.606007
10507.475379,-1628.453072,11695.253884,-73698.386908
10507.477943,-4589.276840,15988.448347,-73851.606007
10507.480507,3701.029710,19689.478057,-73851.606007
10507.483071,296.082377,9030.512492,-77528.864398
10507.485635,1036.288319,-2368.659014,-77375.645298
10507.488198,10807.006753,-10510.924376,-76149.892501
10507.490762,-6069.688724,13619.789333,-75537.016103
10507.493326,-15248.242405,18209.066173,-71706.538613
10507.495890,-19245.354492,13915.871710,-71859.757712
10507.498454,-2516.700203,3404.947333,-76456.330700
10507.501018,-5921.647536,2812.782580,-78907.836294
10507.503582,-8586.388927,9622.677246,-78754.617194
10507.506146,-9622.677246,-14656.077652,-74311.263306
10507.508710,-23686.590144,13323.706956,-72472.634111
10507.511274,-25759.166782,26351.331535,-74924.139704
10507.513838,-2220.617826,-14063.912898,-77528.864398
10507.516402,8882.471304,-8142.265362,-78601.398095
10507.518966,3108.864956,-9030.512492,-78448.178995
10507.521530,10658.965565,-21169.889941,-78141.740796
10507.524094,-13915.871710,-13915.871710,-75383.797003
10507.526658,-8734.430116,3552.988522,-74617.701505
10507.529221,-20133.601622,25315.043216,-76456.330700
10507.531785,-9918.759623,-12879.583391,-78448.178995
10507.534349,-3108.864956,-7254.018232,-78141.740796
10507.536913,-18505.148550,-12583.501014,-78907.836294
10507.539477,-22650.301825,2220.617826,-76456.330700
10507.542041,-592.164754,1036.288319,-75383.797003
10507.544606,1628.453072,-19393.395680,-73085.510509
10507.547170,-740.205942,3701.029710,-73391.948708
10507.549735,-4293.194464,1036.288319,-78601.398095
10507.552300,7550.100608,-11103.089130,-78907.836294
10507.554864,5033.400406,-7105.977043,-77375.645298
10507.557429,-20133.601622,-18061.024985,-75996.673402
10507.559993,-9918.759623,-444.123565,-74004.825107
10507.562558,-20577.725188,12435.459826,-76762.768900
10507.565123,444.123565,1480.411884,-77988.521696
10507.567687,20873.807564,-2812.782580,-78294.959896
10507.570252,-8734.430116,-592.164754,-75996.673402
10507.572816,-26351.331535,15544.324782,-72166.195912
10507.575381,-40267.203245,-2072.576638,-74617.701505
10507.577946,-31976.896694,9030.512492,-76609.549800
10507.580510,-6365.771101,13767.830521,-77069.207099
10507.583075,8734.430116,-13767.830521,-76609.549800
10507.585640,7402.059420,-2960.823768,-75077.358804
10507.588204,-2368.659014,10362.883188,-73851.606007
10507.590769,-9622.677246,18505.148550,-74311.263306
10507.593333,10510.924376,7994.224174,-76915.987999
10507.595898,-1776.494261,-1776.494261,-77682.083497
10507.598463,-9622.677246,1776.494261,-76303.111601
10507.601027,-2664.741391,12435.459826,-77069.207099
10507.603592,-17024.736666,9326.594869,-76762.768900
10507.606156,-20577.725188,9474.636058,-72779.072310
10507.608721,-15840.407159,2368.659014,-72932.291410
10507.611286,-11399.171507,3849.070898,-76915.987999
10507.613850,-10066.800811,2220.617826,-78141.740796
10507.616415,-4885.359217,26499.372724,-75690.235202
10507.618980,9622.677246,1924.535449,-75996.673402
10507.621544,-148.041188,-5773.606348,-73545.167808
10507.624109,3849.070898,592.164754,-75383.797003
10507.626673,-2664.741391,3256.906145,-77682.083497
10507.629238,3256.906145,-8290.306550,-77988.521696
10507.631803,-740.205942,-17024.736666,-79061.055394
10507.634367,2812.782580,19689.478057,-74770.920605
10507.636932,18505.148550,-4589.276840,-74464.482406
10507.639496,4293.194464,-4737.318029,-75383.797003
10507.642061,-12879.583391,18505.148550,-77069.207099
10507.644626,-12731.542202,-4145.153275,-78294.959896
10507.647191,-296.082377,-6069.688724,-77682.083497
10507.649756,5181.441594,5625.565159,-75996.673402
10507.652321,-296.082377,3108.864956,-75843.454302
10507.654887,-9326.594869,-2960.823768,-73238.729609
10507.657452,-7994.224174,-1184.329507,-75077.358804
10507.660017,-2960.823768,-9178.553681,-77988.521696
10507.662582,-9030.512492,-3701.029710,-81206.122788
10507.665148,2220.617826,1036.288319,-79520.712692
10507.667713,-1628.453072,-10214.842000,-75230.577904
10507.670278,-6217.729913,16432.571912,-73698.386908
10507.672843,9770.718434,-444.123565,-75690.235202
10507.675409,19541.436869,-23094.425390,-77988.521696
10507.677974,-2812.782580,-6217.729913,-79520.712692
10507.680539,-27239.578666,12435.459826,-75230.577904
10507.683104,-18061.024985,15396.283594,-73238.729609
10507.685669,-12139.377449,22058.137072,-72319.415011
10507.688235,-18949.272115,13175.665768,-75230.577904
10507.690800,2220.617826,5477.523971,-76915.987999
10507.693365,8290.306550,-17172.777854,-77222.426198
10507.695930,444.123565,5181.441594,-75383.797003
10507.698496,-3256.906145,4737.318029,-74311.263306
10507.701061,-5921.647536,1036.288319,-73085.510509
10507.703626,-1776.494261,8290.306550,-74464.482406
10507.706191,-1628.453072,-444.123565,-76303.111601
10507.708757,-21021.848753,7105.977043,-76303.111601
10507.711322,-19985.560434,22798.343014,-80440.027290
10507.713887,-15544.324782,2812.782580,-77682.083497
10507.716452,-17172.777854,296.082377,-74158.044206
10507.719018,-7402.059420,6217.729913,-71706.538613
10507.721583,-14656.077652,9326.594869,-76456.330700
10507.724148,-14508.036463,148.041188,-78754.617194
10507.726713,-14508.036463,25018.960840,-76609.549800
10507.729279,6957.935855,3404.947333,-76303.111601
10507.731844,4441.235652,-2960.823768,-73085.510509
10507.734409,-6809.894666,4737.318029,-74004.825107
10507.736974,-14804.118840,-1776.494261,-77528.864398
10507.739539,-444.123565,-7402.059420,-78294.959896
10507.742105,888.247130,-14804.118840,-78754.617194
10507.744670,12731.542202,6513.812290,-76609.549800
10507.747235,17024.736666,-9474.636058,-75230.577904
10507.749800,10658.965565,-6661.853478,-74158.044206
10507.752366,-8438.347739,7698.141797,-76149.892501
10507.754931,-13175.665768,6809.894666,-78141.740796
10507.757496,-10807.006753,-18061.024985,-79520.712692
10507.760061,-10362.883188,-25759.166782,-78448.178995
10507.762627,-13027.624579,10362.883188,-74311.263306
10507.765192,3552.988522,8290.306550,-71706.538613
10507.767757,-148.041188,-1036.288319,-72625.853210
10507.770322,-3552.988522,-2220.617826,-77375.645298
10507.772888,-9326.594869,-2516.700203,-80899.684589
10507.775453,-2664.741391,-444.123565,-80133.589091
10507.778018,-10066.800811,-25018.960840,-77528.864398
10507.780583,-15988.448347,8734.430116,-74464.482406
10507.783149,-9178.553681,12287.418637,-74464.482406
10507.785714,1480.411884,-444.123565,-77528.864398
10507.788279,18209.066173,-9326.594869,-79214.274493
10507.790844,-13767.830521,-1628.453072,-77375.645298
10507.793410,-27091.537477,24722.878463,-73698.386908
10507.795975,-39082.873738,-296.082377,-73698.386908
10507.798540,-28127.825796,10510.924376,-74924.139704
10507.801105,2812.782580,8586.388927,-76149.892501
10507.803671,15248.242405,-17468.860231,-76762.768900
10507.806236,4441.235652,3552.988522,-74464.482406
10507.808801,-4145.153275,5477.523971,-74158.044206
10507.811366,-2960.823768,10066.800811,-75230.577904
10507.813932,-22206.178260,-9030.512492,-76609.549800
10507.816497,-22058.137072,5477.523971,-77069.207099
10507.819062,-26055.249158,-9030.512492,-79520.712692
10507.821627,-4885.359217,3404.947333,-78294.959896
10507.824193,-5033.400406,21169.889941,-75996.673402
10507.826758,-9918.759623,-2960.823768,-72932.291410
10507.829323,-9326.594869,6513.812290,-70634.004916
10507.831888,-21021.848753,15396.283594,-75383.797003
10507.834454,-14804.118840,-5921.647536,-79673.931792
10507.837019,-25611.125593,-10658.965565,-78141.740796
10507.839584,-24278.754898,13027.624579,-75077.358804
10507.842149,-5329.482782,13915.871710,-73391.948708
10507.844715,8438.347739,-6217.729913,-74004.825107
10507.847280,6365.771101,-4885.359217,-78294.959896
10507.849845,9622.677246,-9622.677246,-77988.521696
10507.852411,11843.295072,-22650.301825,-79214.274493
10507.854976,-19541.436869,-4885.359217,-76915.987999
10507.857542,-15248.242405,11103.089130,-75690.235202
10507.860107,-3997.112087,11991.336260,-74464.482406
10507.862673,-1924.535449,-11547.212695,-76762.768900
10507.865239,-10658.965565,-1480.411884,-78448.178995
10507.867804,-23094.425390,-15988.448347,-79980.369991
10507.870370,-17468.860231,-1332.370696,-77835.302597
10507.872935,9178.553681,21910.095883,-72779.072310
10507.875501,7254.018232,-5033.400406,-71246.881314
10507.878066,-3552.988522,-15248.242405,-77375.645298
10507.880632,-6513.812290,-6217.729913,-80440.027290
10507.883198,-6957.935855,1924.535449,-80593.246390
10507.885763,-12731.542202,-6217.729913,-77069.207099
10507.888329,-5921.647536,8438.347739,-76149.892501
10507.890894,14804.118840,-6365.771101,-74158.044206
10507.893460,18949.272115,-19245.354492,-75996.673402
10507.896026,-5329.482782,-6513.812290,-79367.493593
10507.898591,-31384.731941,8290.306550,-75996.673402
10507.901157,-16580.613101,20281.642811,-74617.701505
10507.903722,-8882.471304,26499.372724,-72625.853210
10507.906288,15840.407159,11695.253884,-74158.044206
10507.908853,-1332.370696,2072.576638,-76303.111601
10507.911419,11547.212695,-17764.942608,-76303.111601
10507.913985,-888.247130,8290.306550,-74924.139704
10507.916550,-5329.482782,3256.906145,-73851.606007
10507.919116,-3552.988522,1184.329507,-73238.729609
10507.921681,-6809.894666,-9770.718434,-75843.454302
10507.924247,-15248.242405,-5625.565159,-75996.673402
10507.926812,-11251.130318,16432.571912,-76456.330700
10507.929378,3849.070898,12583.501014,-78907.836294
10507.931944,-4293.194464,4293.194464,-77375.645298
10507.934509,-23982.672521,12287.418637,-73698.386908
10507.937075,-17024.736666,4441.235652,-71706.538613
10507.939640,-11843.295072,4885.359217,-74770.920605
10507.942206,-5477.523971,-4145.153275,-79061.055394
10507.944771,-22354.219448,-9770.718434,-78754.617194
10507.947337,-31680.814318,16580.613101,-74617.701505
10507.949903,-14656.077652,16580.613101,-73238.729609
10507.952468,3404.947333,-14063.912898,-74311.263306
10507.955033,8438.347739,1480.411884,-77375.645298
10507.957599,9474.636058,-8142.265362,-78448.178995
10507.960164,14804.118840,-25759.166782,-78141.740796
10507.962729,-18801.230927,10066.800811,-76762.768900
10507.965295,-7550.100608,12731.542202,-75690.235202
10507.967860,4589.276840,-3108.864956,-74158.044206
10507.970425,-3404.947333,-7994.224174,-76149.892501
10507.972991,-14656.077652,2072.576638,-77988.521696
10507.975556,1480.411884,9474.636058,-77835.302597
10507.978121,13915.871710,-6661.853478,-76456.330700
10507.980686,13619.789333,10214.842000,-72779.072310
10507.983252,-5033.400406,-740.205942,-72472.634111
10507.985817,-2812.782580,-3849.070898,-75077.358804
10507.988382,5033.400406,-740.205942,-78294.959896
10507.990948,4145.153275,-8586.388927,-80746.465489
10507.993513,-18653.189738,-22650.301825,-79061.055394
10507.996078,-24130.713709,12879.583391,-74617.701505
10507.998644,2516.700203,3701.029710,-74158.044206
10508.001209,22058.137072,-21317.931130,-76609.549800
10508.003774,11251.130318,-4145.153275,-78601.398095
10508.006340,-13175.665768,4293.194464,-77528.864398
10508.008905,-17320.819043,22798.343014,-74311.263306
10508.011470,-31236.690752,-1480.411884,-74617.701505
10508.014035,-33013.185013,12583.501014,-75690.235202
10508.016601,-5921.647536,9622.677246,-75077.358804
10508.019166,9326.594869,-20281.642811,-75230.577904
10508.021731,0.000000,3256.906145,-75690.235202
10508.024297,-7105.977043,8734.430116,-74311.263306
10508.026862,2220.617826,11843.295072,-73391.948708
10508.029427,-11843.295072,9770.718434,-74158.044206
10508.031993,-8142.265362,5921.647536,-77222.426198
10508.034558,-592.164754,740.205942,-78601.398095
10508.037123,9178.553681,-5329.482782,-78294.959896
10508.039688,-10807.006753,7402.059420,-74770.920605
10508.042254,-28275.866984,4293.194464,-71859.757712
10508.044819,-15692.365970,13027.624579,-72625.853210
10508.047384,-4737.318029,-2368.659014,-76456.330700
10508.049950,-4737.318029,24574.837274,-77835.302597
10508.052515,3997.112087,3256.906145,-77835.302597
10508.055080,-5329.482782,-5181.441594,-75383.797003
10508.057647,-20725.766376,16284.530724,-74311.263306
10508.060212,-19689.478057,-6365.771101,-76915.987999
10508.062777,592.164754,-6365.771101,-76762.768900
10508.065343,8586.388927,-15988.448347,-78601.398095
10508.067908,14656.077652,-12435.459826,-77988.521696
10508.070473,15544.324782,-8290.306550,-75537.016103
10508.073038,-8142.265362,-2072.576638,-74311.263306
10508.075603,-12583.501014,19837.519246,-76303.111601
10508.078169,-8586.388927,-11843.295072,-77528.864398
10508.080734,6365.771101,-4293.194464,-77835.302597
10508.083299,17912.983796,-3256.906145,-76303.111601
10508.085864,11399.171507,8142.265362,-73238.729609
10508.088429,3997.112087,13175.665768,-72625.853210
10508.090995,-5921.647536,-6957.935855,-73545.167808
10508.093560,-2368.659014,-3997.112087,-77222.426198
10508.096125,2664.741391,-1332.370696,-80899.684589
10508.098690,1628.453072,13323.706956,-78448.178995
10508.101255,-9918.759623,12879.583391,-76456.330700
10508.103821,21762.054695,-2072.576638,-74617.701505
10508.106386,23686.590144,-22206.178260,-76303.111601
10508.108951,-7402.059420,-1036.288319,-78601.398095
10508.111516,-23390.507767,7846.182985,-75537.016103
10508.114081,-14211.954086,9622.677246,-75383.797003
10508.116647,-16580.613101,28127.825796,-73698.386908
10508.119212,3701.029710,15100.201217,-73545.167808
10508.121777,-4885.359217,-4145.153275,-75077.358804
10508.124342,-13323.706956,-444.123565,-77375.645298
10508.126907,-13027.624579,12879.583391,-77375.645298
10508.129473,-8438.347739,-2368.659014,-76609.549800
10508.132038,-1332.370696,2812.782580,-74464.482406
10508.134603,-16728.654289,-9770.718434,-75996.673402
10508.137168,-27239.578666,5773.606348,-75996.673402
10508.139733,-31680.814318,1924.535449,-78907.836294
10508.142299,-6661.853478,1036.288319,-80286.808190
10508.144864,-5033.400406,10214.842000,-76456.330700
10508.147429,-21614.013506,1776.494261,-73851.606007
10508.149994,-18061.024985,18801.230927,-70940.443115
10508.152559,-8438.347739,9030.512492,-74311.263306
10508.155125,4441.235652,11695.253884,-77375.645298
10508.157690,1776.494261,-6809.894666,-77528.864398
10508.160254,-22354.219448,6069.688724,-75843.454302
10508.162819,-28719.990550,18653.189738,-74617.701505
10508.165383,-13915.871710,-8290.306550,-75843.454302
10508.167948,-7402.059420,-7550.100608,-77375.645298
10508.170512,-296.082377,-10066.800811,-78448.178995
10508.173076,16284.530724,-8438.347739,-78448.178995
10508.175641,7550.100608,-15396.283594,-76456.330700
10508.178205,-14211.954086,9474.636058,-75077.358804
10508.180770,-11399.171507,23390.507767,-75537.016103
10508.183334,-5921.647536,-12583.501014,-77222.426198
10508.185899,-8438.347739,-6661.853478,-78141.740796
10508.188463,-12139.377449,8586.388927,-78754.617194
10508.191028,2664.741391,-14656.077652,-76915.987999
10508.193592,-3256.906145,-14211.954086,-73391.948708
10508.196157,-11103.089130,5773.606348,-73698.386908
10508.198721,-8142.265362,-1628.453072,-78141.740796
10508.201285,6957.935855,-2812.782580,-79827.150892
10508.203850,-1480.411884,-19097.313304,-79673.931792
10508.206414,-15544.324782,8290.306550,-75843.454302
10508.208979,-1036.288319,740.205942,-74924.139704
10508.211543,19393.395680,-17320.819043,-74617.701505
10508.214108,6957.935855,-7698.141797,-78601.398095
10508.216672,-24574.837274,13175.665768,-76609.549800
10508.219237,-17024.736666,17616.901420,-75383.797003
10508.221801,-8438.347739,22650.301825,-72779.072310
10508.224365,6217.729913,16876.695478,-74158.044206
10508.226930,-12435.459826,888.247130,-76609.549800
10508.229494,6809.894666,-16728.654289,-75843.454302
10508.232059,-2072.576638,8142.265362,-75230.577904
10508.234623,-3256.906145,4737.318029,-74464.482406
10508.237188,9474.636058,16432.571912,-72012.976812
10508.239752,592.164754,19245.354492,-73851.606007
10508.242317,3701.029710,18061.024985,-74770.920605
10508.244881,9622.677246,12287.418637,-76915.987999
10508.247445,4589.276840,-3552.988522,-80899.684589
10508.250010,-6513.812290,6661.853478,-75537.016103
10508.252574,-18801.230927,-1184.329507,-71706.538613
10508.255139,-14656.077652,7254.018232,-72932.291410
10508.257703,-10658.965565,6661.853478,-75383.797003
10508.260268,-18209.066173,27683.702231,-75843.454302
10508.262832,-25167.002028,17616.901420,-76915.987999
10508.265396,3256.906145,-444.123565,-73238.729609
10508.267960,15248.242405,1628.453072,-73698.386908
10508.270524,5181.441594,296.082377,-75996.673402
10508.273088,0.000000,-10066.800811,-77069.207099
10508.275652,740.205942,-13323.706956,-78448.178995
10508.278216,12583.501014,12435.459826,-76303.111601
10508.280781,13619.789333,-5181.441594,-75537.016103
10508.283345,-6661.853478,-3108.864956,-73851.606007
10508.285909,-3108.864956,14508.036463,-74158.044206
10508.288473,-296.082377,3997.112087,-76915.987999
10508.291037,16876.695478,10807.006753,-76303.111601
10508.293601,30052.361245,11843.295072,-77222.426198
10508.296165,34345.555709,-15100.201217,-73545.167808
10508.298729,9178.553681,-5921.647536,-69561.471218
10508.301293,-16136.489536,25759.166782,-74158.044206
10508.303858,10214.842000,-4589.276840,-77682.083497
10508.306422,20429.683999,-7846.182985,-80133.589091
10508.308986,29608.237680,-8438.347739,-77528.864398
10508.311550,-3849.070898,-2960.823768,-73545.167808
10508.314114,-18061.024985,8734.430116,-74311.263306
10508.316678,-11843.295072,3404.947333,-76762.768900
10508.319242,5329.482782,2812.782580,-78294.959896
10508.321806,-5773.606348,1628.453072,-77682.083497
10508.324370,-10510.924376,18949.272115,-73391.948708
10508.326935,-2812.782580,1036.288319,-75383.797003
10508.329499,-21762.054695,2516.700203,-74924.139704
10508.332063,-30792.567187,14063.912898,-77988.521696
10508.334627,-13767.830521,7105.977043,-78754.617194
10508.337191,-11695.253884,-9030.512492,-76456.330700
10508.339755,-12287.418637,14063.912898,-74311.263306
10508.342319,-14508.036463,34197.514520,-73085.510509
10508.344854,6217.729913,6661.853478,-75690.235202
10508.347389,740.205942,-8142.265362,-77375.645298
10508.349924,-4441.235652,-2220.617826,-79367.493593
10508.352459,-3997.112087,11991.336260,-77069.207099
10508.354994,444.123565,-148.041188,-71859.757712
10508.357529,-15396.283594,4293.194464,-71859.757712
10508.360064,-18801.230927,5181.441594,-75996.673402
10508.362599,-19393.395680,31384.731941,-76149.892501
10508.365135,3849.070898,6661.853478,-78294.959896
10508.367670,8882.471304,-13471.748144,-77222.426198
10508.370205,-10807.006753,8734.430116,-74617.701505
10508.372740,-17320.819043,2664.741391,-75077.358804
10508.375275,-1480.411884,-12583.501014,-75843.454302
10508.377810,1628.453072,-13471.748144,-78448.178995
10508.380345,7846.182985,-6513.812290,-79214.274493
10508.382880,0.000000,-13915.871710,-76303.111601
10508.385415,-13471.748144,9474.636058,-74004.825107
10508.387950,-11991.336260,24278.754898,-76915.987999
10508.390485,-4293.194464,-7402.059420,-79367.493593
10508.393020,-11547.212695,-23538.548956,-79980.369991
10508.395555,-20133.601622,-7105.977043,-76303.111601
10508.398090,-9474.636058,18505.148550,-74617.701505
10508.400625,-2812.782580,3108.864956,-73545.167808
10508.403160,-5773.606348,-19541.436869,-74770.920605
10508.405695,-10510.924376,-6957.935855,-78907.836294
10508.408230,-740.205942,14359.995275,-79673.931792
10508.410765,36270.091158,-10955.047942,-77375.645298
10508.413300,18061.024985,-14063.912898,-75077.358804
10508.415835,-19393.395680,8290.306550,-75537.016103
10508.418370,-17172.777854,14211.954086,-74770.920605
10508.420905,9178.553681,740.205942,-77835.302597
10508.423440,5033.400406,-4441.235652,-76149.892501
10508.425975,-7402.059420,10510.924376,-76149.892501
10508.428510,-22206.178260,-2220.617826,-75843.454302
10508.431045,-38342.667796,11991.336260,-73238.729609
10508.433580,-19985.560434,13915.871710,-76762.768900
10508.436116,-5181.441594,4145.153275,-78448.178995
10508.438651,-11399.171507,148.041188,-76149.892501
10508.441186,-17468.860231,1776.494261,-75230.577904
10508.443721,-6365.771101,-1480.411884,-76915.987999
10508.446261,-10214.842000,444.123565,-75690.235202
10508.448801,-3849.070898,22798.343014,-75077.358804
10508.451342,4441.235652,9622.677246,-77835.302597
10508.453882,-7254.018232,-592.164754,-76915.987999
10508.456422,-9918.759623,7698.141797,-72625.853210
10508.458963,-19393.395680,8882.471304,-71706.538613
10508.461503,-19393.395680,9622.677246,-75537.016103
10508.464043,-34197.514520,14359.995275,-77375.645298
10508.466583,-6957.935855,7994.224174,-78601.398095
10508.469124,10362.883188,-740.205942,-76456.330700
10508.471664,7254.018232,3849.070898,-73698.386908
10508.474204,-592.164754,148.041188,-74158.044206
10508.476745,-6069.688724,-12139.377449,-76915.987999
10508.479285,-4293.194464,-10658.965565,-79214.274493
10508.481825,13471.748144,5477.523971,-77528.864398
10508.484366,16580.613101,-14508.036463,-75077.358804
10508.486906,-4293.194464,-7698.141797,-73851.606007
10508.489446,-2368.659014,4145.153275,-76915.987999
10508.491987,-2812.782580,6513.812290,-77988.521696
10508.494527,5033.400406,888.247130,-76762.768900
10508.497067,9178.553681,-10658.965565,-75996.673402
10508.499608,6513.812290,4737.318029,-74464.482406
10508.502148,-5181.441594,7994.224174,-73238.729609
10508.504688,-444.123565,-9918.759623,-74924.139704
10508.507229,2072.576638,-6957.935855,-79673.931792
10508.509769,-13027.624579,1628.453072,-79980.369991
10508.512309,-2664.741391,13471.748144,-76303.111601
10508.514850,14359.995275,-11251.130318,-76149.892501
10508.517390,28571.949361,-17616.901420,-74617.701505
10508.519930,24130.713709,-3849.070898,-77835.302597
10508.522470,-13619.789333,10214.842000,-75996.673402
10508.525011,-23094.425390,18801.230927,-75230.577904
10508.527551,-21465.972318,27831.743419,-73391.948708
10508.530091,-4589.276840,17468.860231,-75230.577904
10508.532632,-7846.182985,-1628.453072,-76456.330700
10508.535172,-6069.688724,-8882.471304,-77222.426198
10508.537712,-888.247130,13471.748144,-76456.330700
10508.540253,-6365.771101,7402.059420,-73851.606007
10508.542793,-8734.430116,-3849.070898,-74158.044206
10508.545333,-22946.384202,-4589.276840,-77069.207099
10508.547878,-18209.066173,9622.677246,-75843.454302
10508.550423,-20873.807564,26203.290347,-79673.931792
10508.552968,-9918.759623,-592.164754,-79367.493593
10508.555513,-12583.501014,888.247130,-76149.892501
10508.558058,-28571.949361,14656.077652,-72319.415011
10508.560603,-18505.148550,15396.283594,-73238.729609
10508.563148,13175.665768,13767.830521,-76149.892501
10508.565693,10658.965565,-10362.883188,-79061.055394
10508.568238,-27979.784608,3552.988522,-77835.302597
10508.570783,-38638.750172,18357.107362,-74924.139704
10508.573328,-18357.107362,-6069.688724,-74617.701505
10508.575873,6365.771101,-7105.977043,-76609.549800
10508.578418,13471.748144,-10214.842000,-77375.645298
10508.580963,11251.130318,-13619.789333,-79367.493593
10508.583508,-3108.864956,-16136.489536,-76456.330700
10508.586053,-14952.160028,11695.253884,-74770.920605
10508.588598,-9770.718434,18801.230927,-75230.577904
10508.591143,6661.853478,-7550.100608,-77835.302597
10508.593688,-23982.672521,-4885.359217,-79214.274493
10508.596233,-24722.878463,2516.700203,-77069.207099
10508.598778,3256.906145,10214.842000,-75690.235202
10508.601323,3849.070898,-8882.471304,-72625.853210
10508.603868,-4293.194464,-15248.242405,-73851.606007
10508.606413,-3701.029710,-2072.576638,-77528.864398
10508.608958,4441.235652,19097.313304,-79367.493593
10508.611503,-7105.977043,12139.377449,-77222.426198
10508.614048,17468.860231,-4145.153275,-77375.645298
10508.616593,18505.148550,-25611.125593,-76762.768900
10508.619137,-11991.336260,-3108.864956,-76609.549800
10508.621682,-30348.443622,20725.766376,-75077.358804
10508.624227,-5033.400406,6217.729913,-75537.016103
10508.626772,-1036.288319,16136.489536,-75230.577904
10508.629317,-740.205942,-2220.617826,-76149.892501
10508.631862,-32865.143825,7994.224174,-74311.263306
10508.634407,-25463.084405,14656.077652,-78141.740796
10508.636952,-5329.482782,5773.606348,-79673.931792
10508.639497,-13175.665768,-4441.235652,-75690.235202
10508.642042,-11547.212695,15248.242405,-73085.510509
10508.644587,-4885.359217,24574.837274,-74464.482406
10508.647132,148.041188,-19837.519246,-78601.398095
10508.649680,-5921.647536,-10510.924376,-76762.768900
10508.652229,-5477.523971,20281.642811,-77375.645298
10508.654777,-10066.800811,13619.789333,-74004.825107
10508.657325,-7846.182985,1480.411884,-70634.004916
10508.659874,-15988.448347,3404.947333,-73851.606007
10508.662422,-12139.377449,20577.725188,-76762.768900
10508.664970,-6069.688724,-12879.583391,-77835.302597
10508.667518,-30052.361245,5033.400406,-78294.959896
10508.670067,-27091.537477,19985.560434,-76609.549800
10508.672615,-9474.636058,-7105.977043,-73545.167808
10508.675163,-2664.741391,-8142.265362,-76456.330700
10508.677711,7550.100608,-15840.407159,-77222.426198
10508.680260,12287.418637,-18357.107362,-79827.150892
10508.682808,-10066.800811,-11843.295072,-77682.083497
10508.685356,-19541.436869,16136.489536,-74464.482406
10508.687904,-14063.912898,11103.089130,-75996.673402
10508.690453,1184.329507,-14359.995275,-80133.589091
10508.693001,-2960.823768,-888.247130,-78448.178995
10508.695549,-11695.253884,-4145.153275,-75537.016103
10508.698098,4145.153275,2516.700203,-74158.044206
10508.700646,1480.411884,1036.288319,-72319.415011
10508.703194,-6661.853478,-7846.182985,-75383.797003
10508.705742,-5181.441594,5773.606348,-79061.055394
10508.708291,-13471.748144,-18653.189738,-81972.218286
10508.710839,-23982.672521,3552.988522,-77835.302597
10508.713387,-3849.070898,4885.359217,-75537.016103
10508.715935,26795.455100,-22946.384202,-75537.016103
10508.718484,16876.695478,-10658.965565,-77069.207099
10508.721032,-27091.537477,12731.542202,-74617.701505
10508.723580,-23242.466579,23686.590144,-75077.358804
10508.726129,-6217.729913,28719.990550,-73238.729609
10508.728677,14804.118840,3552.988522,-75230.577904
10508.731225,-17172.777854,148.041188,-76609.549800
10508.733773,-19393.395680,3108.864956,-77682.083497
10508.736322,-4885.359217,10214.842000,-77375.645298
10508.738870,-5773.606348,3552.988522,-71706.538613
10508.741418,15248.242405,10510.924376,-72012.976812
10508.743966,7402.059420,3701.029710,-76456.330700
10508.746515,-21021.848753,-9622.677246,-77222.426198
10508.749063,-22946.384202,17912.983796,-80286.808190
10508.751614,-14508.036463,11547.212695,-79061.055394
10508.754166,-8290.306550,-2072.576638,-74004.825107
10508.756717,-21910.095883,11251.130318,-72779.072310
10508.759268,-25463.084405,14656.077652,-74311.263306
10508.761820,-26647.413912,27683.702231,-76915.987999
10508.764371,6217.729913,4293.194464,-78294.959896
10508.766923,7994.224174,-9030.512492,-76456.330700
10508.769474,-4737.318029,1332.370696,-74617.701505
10508.772025,1332.370696,3849.070898,-75843.454302
10508.774577,-3108.864956,-11251.130318,-77528.864398
10508.777128,1480.411884,-11695.253884,-78601.398095
10508.779679,14508.036463,11991.336260,-76609.549800
10508.782231,17172.777854,-11695.253884,-73698.386908
10508.784782,-3701.029710,592.164754,-71859.757712
10508.787333,1332.370696,17616.901420,-77222.426198
10508.789885,6809.894666,-2664.741391,-79367.493593
10508.792436,15248.242405,-13471.748144,-75843.454302
10508.794988,-444.123565,-17468.860231,-75383.797003
10508.797539,-4293.194464,-1924.535449,-73545.167808
10508.800090,-10955.047942,11251.130318,-72779.072310
10508.802642,-1332.370696,5773.606348,-77835.302597
10508.805193,3701.029710,5181.441594,-79061.055394
10508.807744,31384.731941,-1480.411884,-78141.740796
10508.810296,23686.590144,-11399.171507,-74924.139704
10508.812847,-11251.130318,-5329.482782,-75537.016103
10508.815399,-23094.425390,12731.542202,-75843.454302
10508.817950,-888.247130,15692.365970,-76609.549800
10508.820501,5625.565159,-8734.430116,-77069.207099
10508.823053,-15988.448347,12139.377449,-76303.111601
10508.825604,-44412.356520,-3256.906145,-75690.235202
10508.828155,-43376.068201,9326.594869,-74464.482406
10508.830707,-8290.306550,6661.853478,-76456.330700
10508.833258,5033.400406,296.082377,-79673.931792
10508.835809,-15840.407159,-5181.441594,-75537.016103
10508.838361,-12287.418637,22502.260637,-72472.634111
10508.840912,15840.407159,31680.814318,-72932.291410
10508.843464,6957.935855,-24130.713709,-79061.055394
10508.846015,-22206.178260,-5773.606348,-79061.055394
10508.848566,-12139.377449,27831.743419,-77835.302597
10508.851118,3849.070898,6513.812290,-74464.482406
10508.853643,3701.029710,-1776.494261,-71553.319513
10508.856168,-28275.866984,2072.576638,-74004.825107
10508.858693,-26351.331535,32569.061448,-75996.673402
10508.861218,5921.647536,-5329.482782,-77069.207099
10508.863743,-6957.935855,-6069.688724,-78294.959896
10508.866268,-27091.537477,-2664.741391,-75690.235202
10508.868793,-11103.089130,6365.771101,-75230.577904
10508.871318,-3849.070898,-8586.388927,-75537.016103
10508.873844,5033.400406,-18653.189738,-77835.302597
10508.876369,8586.388927,-11399.171507,-79367.493593
10508.878894,-8882.471304,-10066.800811,-77222.426198
10508.881419,-19837.519246,12287.418637,-73698.386908
10508.883944,-9622.677246,8438.347739,-76303.111601
10508.886469,11695.253884,-6217.729913,-79827.150892
10508.888994,-5625.565159,14211.954086,-77835.302597
10508.891519,-6809.894666,-7402.059420,-74617.701505
10508.894044,4441.235652,-2664.741391,-73851.606007
10508.896569,-5921.647536,2516.700203,-73391.948708
10508.899095,4145.153275,-3997.112087,-77375.645298
10508.901620,3404.947333,12139.377449,-78907.836294
10508.904145,30792.567187,-5921.647536,-77069.207099
10508.906670,23242.466579,-17616.901420,-74004.825107
10508.909195,-5625.565159,-2812.782580,-75996.673402
10508.911720,-19689.478057,12435.459826,-74924.139704
10508.914245,-2368.659014,9178.553681,-76609.549800
10508.916770,3404.947333,-10214.842000,-78294.959896
10508.919295,-20577.725188,13915.871710,-75690.235202
10508.921820,-49001.633360,4885.359217,-75690.235202
10508.924346,-39526.997303,13323.706956,-75077.358804
10508.926871,4885.359217,6217.729913,-75537.016103
10508.929396,11251.130318,-4737.318029,-80133.589091
10508.931921,-15396.283594,1036.288319,-74464.482406
10508.934446,-26055.249158,7550.100608,-73391.948708
10508.936971,-11399.171507,296.082377,-76149.892501
10508.939496,-4441.235652,16136.489536,-77988.521696
10508.942021,-2072.576638,9030.512492,-77528.864398
10508.944546,296.082377,-7698.141797,-77069.207099
10508.947071,-10658.965565,4441.235652,-74464.482406
10508.949597,-25315.043216,9030.512492,-72319.415011
10508.952122,-16728.654289,9030.512492,-73851.606007
10508.954655,-740.205942,31828.855506,-75843.454302
10508.957188,1184.329507,-6365.771101,-79214.274493
10508.959721,-15840.407159,-7402.059420,-75690.235202
10508.962254,1628.453072,-592.164754,-75383.797003
10508.964787,-5477.523971,4737.318029,-75383.797003
10508.967320,-1480.411884,-8882.471304,-76456.330700
10508.969853,1184.329507,-13619.789333,-79367.493593
10508.972386,10510.924376,-5773.606348,-77988.521696
10508.974919,444.123565,-13471.748144,-75077.358804
10508.977452,-11399.171507,14804.118840,-72472.634111
10508.979985,-148.041188,15988.448347,-76609.549800
10508.982518,13175.665768,-5477.523971,-78907.836294
10508.985051,10807.006753,-3108.864956,-76303.111601
10508.987584,-1480.411884,-11251.130318,-75077.358804
10508.990117,3256.906145,-5033.400406,-71859.757712
10508.992650,-4885.359217,6069.688724,-73698.386908
10508.995183,5181.441594,3404.947333,-77988.521696
10508.997716,-4589.276840,-5033.400406,-79520.712692
10509.000249,2220.617826,7550.100608,-78754.617194
10509.002782,12879.583391,-5625.565159,-76149.892501
10509.005315,3701.029710,-19689.478057,-76149.892501
10509.007848,-10807.006753,1480.411884,-76915.987999
10509.010381,-12583.501014,21465.972318,-75077.358804
10509.012914,1332.370696,-2664.741391,-75690.235202
10509.015447,-12435.459826,11399.171507,-76456.330700
10509.017981,-20873.807564,-2960.823768,-76149.892501
10509.020514,-37602.461854,7105.977043,-74311.263306
10509.023047,-19837.519246,13323.706956,-78141.740796
10509.025580,-7550.100608,4441.235652,-77375.645298
10509.028113,-14656.077652,2812.782580,-73545.167808
10509.030646,-23242.466579,-2812.782580,-74924.139704
10509.033179,-29312.155303,9178.553681,-77528.864398
10509.035712,6069.688724,17320.819043,-78448.178995
10509.038245,6513.812290,-4589.276840,-76915.987999
10509.040778,888.247130,-1776.494261,-76303.111601
10509.043311,-24870.919651,19689.478057,-72472.634111
10509.045844,-19985.560434,7550.100608,-71706.538613
10509.048377,4441.235652,-8142.265362,-76762.768900
10509.050910,-29312.155303,-2220.617826,-77069.207099
10509.053443,-33457.308578,22206.178260,-75996.673402
10509.055956,-35529.885216,26203.290347,-75537.016103
10509.058467,-8438.347739,-15100.201217,-75537.016103
10509.060978,12879.583391,-5921.647536,-76762.768900
10509.063489,11251.130318,-5033.400406,-77682.083497
10509.066000,21021.848753,-10807.006753,-76762.768900
10509.068510,11991.336260,11991.336260,-75537.016103
10509.071021,4737.318029,3108.864956,-73698.386908
10509.073532,-11991.336260,2516.700203,-74464.482406
10509.076043,-4885.359217,2072.576638,-78601.398095
10509.078554,12731.542202,-4145.153275,-78294.959896
10509.081065,5921.647536,-6809.894666,-75996.673402
10509.083575,3404.947333,-1332.370696,-72779.072310
10509.086086,-2368.659014,-444.123565,-70787.224015
10509.088597,-6069.688724,-13175.665768,-76303.111601
10509.091108,-1184.329507,10807.006753,-78601.398095
10509.093619,33013.185013,1036.288319,-79673.931792
10509.096129,24574.837274,-15248.242405,-74158.044206
10509.098640,-7105.977043,-2368.659014,-73238.729609
10509.101151,-20429.683999,9178.553681,-74770.920605
10509.103662,11103.089130,9770.718434,-76456.330700
10509.106173,4589.276840,-4885.359217,-77528.864398
10509.108683,-21021.848753,18357.107362,-75843.454302
10509.111194,-43820.191766,15396.283594,-73851.606007
10509.113705,-26499.372724,8882.471304,-75996.673402
10509.116216,5181.441594,-1628.453072,-76456.330700
10509.118727,3404.947333,-11399.171507,-78907.836294
10509.121238,-12287.418637,9622.677246,-74004.825107
10509.123748,-16432.571912,11103.089130,-71706.538613
10509.126259,4145.153275,-4589.276840,-73545.167808
10509.128770,-888.247130,22650.301825,-77222.426198
10509.131281,-6661.853478,19689.478057,-79520.712692
10509.133792,-4441.235652,-14063.912898,-78448.178995
10509.136302,-14656.077652,1480.411884,-74770.920605
10509.138813,-27387.619854,21317.931130,-71246.881314
10509.141324,-12583.501014,6957.935855,-74464.482406
10509.143835,-26943.496289,13915.871710,-77222.426198
10509.146346,-5921.647536,12139.377449,-78294.959896
10509.148856,1776.494261,-1776.494261,-76456.330700
10509.151367,8438.347739,-5329.482782,-75690.235202
10509.153878,10510.924376,1628.453072,-76149.892501
10509.156400,3404.947333,-16728.654289,-77069.207099
10509.158922,-296.082377,-9178.553681,-78294.959896
10509.161444,11547.212695,15396.283594,-76303.111601
10509.163966,13619.789333,-9474.636058,-73085.510509
10509.166488,-5329.482782,3849.070898,-72012.976812
10509.169010,1628.453072,17468.860231,-78141.740796
10509.171531,-14656.077652,-15692.365970,-83044.751983
10509.174053,-19689.478057,-4441.235652,-79214.274493
10509.176575,-6513.812290,13027.624579,-74158.044206
10509.179097,-6513.812290,-6661.853478,-72472.634111
10509.181619,1332.370696,-8142.265362,-75537.016103
10509.184141,5477.523971,4737.318029,-79520.712692
10509.186663,29904.320057,-2960.823768,-78907.836294
10509.189185,14359.995275,-14508.036463,-74770.920605
10509.191707,-6957.935855,-2516.700203,-74464.482406
10509.194229,-13323.706956,4737.318029,-74004.825107
10509.196751,9326.594869,888.247130,-77375.645298
10509.199273,-4589.276840,-296.082377,-77528.864398
10509.201794,-18357.107362,19985.560434,-75077.358804
10509.204316,-39675.038491,16876.695478,-73391.948708
10509.206838,-25611.125593,12879.583391,-76149.892501
10509.209360,4145.153275,-1924.535449,-75537.016103
10509.211882,12583.501014,-17024.736666,-76456.330700
10509.214404,-12583.501014,8290.306550,-73545.167808
10509.216926,-23982.672521,3256.906145,-72779.072310
10509.219448,-26203.290347,8734.430116,-76456.330700
10509.221970,-23538.548956,-3108.864956,-81818.999186
10509.224492,-21021.848753,-7402.059420,-81512.560987
10509.227014,-12139.377449,10807.006753,-78754.617194
10509.229536,-10807.006753,9770.718434,-72012.976812
10509.232057,-13027.624579,9622.677246,-70787.224015
10509.234579,-12139.377449,-4293.194464,-76303.111601
10509.237101,-38342.667796,-2960.823768,-77069.207099
10509.239623,-18949.272115,15248.242405,-75843.454302
10509.242145,-2516.700203,5773.606348,-76149.892501
10509.244667,-5181.441594,-13471.748144,-75843.454302
10509.247189,11991.336260,-3849.070898,-77069.207099
10509.249711,9770.718434,-11991.336260,-77375.645298
10509.252233,13323.706956,-10510.924376,-77222.426198
10509.254755,13323.706956,20577.725188,-76303.111601
10509.257286,8290.306550,-2516.700203,-73391.948708
10509.259818,-8290.306550,-592.164754,-73545.167808
10509.262349,-444.123565,11399.171507,-78448.178995
10509.264881,-1924.535449,20281.642811,-78294.959896
10509.267412,18357.107362,18357.107362,-75383.797003
10509.269944,26055.249158,-18949.272115,-72166.195912
10509.272475,4293.194464,-9918.759623,-70174.347617
10509.275007,-12879.583391,22946.384202,-74617.701505
10509.277538,-24130.713709,12583.501014,-79980.369991
10509.280070,15544.324782,18505.148550,-79673.931792
10509.282601,43820.191766,-11547.212695,-76762.768900
10509.285133,5477.523971,-22946.384202,-76456.330700
10509.287664,-24574.837274,9474.636058,-76303.111601
10509.290196,-16432.571912,19097.313304,-74617.701505
10509.292727,3404.947333,-3404.947333,-76609.549800
10509.295259,-15988.448347,8882.471304,-76303.111601
10509.297790,-39823.079680,-8734.430116,-75843.454302
10509.300322,-41451.532752,6957.935855,-74464.482406
10509.302853,-10362.883188,15396.283594,-77988.521696
10509.305385,6661.853478,-7698.141797,-78754.617194
10509.307916,-18505.148550,3997.112087,-74311.263306
