#time,accel_x,accel_y,accel_z
11498.895068,-13915.871710,3256.906145,-71400.100414
11498.897689,14952.160028,7698.141797,-72166.195912
11498.900310,-4441.235652,25167.002028,-79827.150892
11498.902931,-54775.239708,4441.235652,-85496.257577
11498.905552,-8586.388927,740.205942,-79214.274493
11498.908173,26943.496289,7698.141797,-68948.594820
11498.910794,12879.583391,15692.365970,-70787.224015
11498.913415,14656.077652,-1332.370696,-76609.549800
11498.916036,10362.883188,-1776.494261,-77835.302597
11498.918657,-9770.718434,14063.912898,-78294.959896
11498.921277,-26351.331535,5329.482782,-76149.892501
11498.923916,-6661.853478,-2960.823768,-75230.577904
11498.926555,-1924.535449,16136.489536,-74770.920605
11498.929193,-15692.365970,8734.430116,-76915.987999
11498.931832,15692.365970,6809.894666,-73391.948708
11498.934470,47521.221476,-3256.906145,-74004.825107
11498.937109,1776.494261,3108.864956,-79061.055394
11498.939747,-20725.766376,17912.983796,-77069.207099
11498.942386,16580.613101,24426.796086,-69255.033019
11498.945025,32865.143825,-5329.482782,-70174.347617
11498.947663,10066.800811,-22798.343014,-77375.645298
11498.950302,-8734.430116,3849.070898,-79827.150892
11498.952940,-18801.230927,32272.979071,-74924.139704
11498.955579,5033.400406,4293.194464,-68948.594820
11498.958217,3404.947333,-18801.230927,-76609.549800
11498.960856,444.123565,6661.853478,-78448.178995
11498.963495,-22502.260637,14359.995275,-78448.178995
11498.966133,23686.590144,17764.942608,-75537.016103
11498.968772,34789.679274,3849.070898,-75383.797003
11498.971410,-12435.459826,6661.853478,-75996.673402
11498.974049,-9178.553681,12583.501014,-73085.510509
11498.976687,8142.265362,7846.182985,-73545.167808
11498.979326,4589.276840,-8290.306550,-78907.836294
11498.981965,-20281.642811,20577.725188,-80899.684589
11498.984603,-33753.390955,19837.519246,-76609.549800
11498.987242,21762.054695,9326.594869,-69867.909418
11498.989880,46040.809592,-7550.100608,-71859.757712
11498.992519,3404.947333,-2072.576638,-78448.178995
11498.995157,-16284.530724,20429.683999,-75843.454302
11498.997796,11843.295072,-12583.501014,-75077.358804
11499.000435,11547.212695,13323.706956,-73851.606007
11499.003073,-20873.807564,14656.077652,-76149.892501
11499.005712,-22502.260637,-4145.153275,-74311.263306
11499.008350,4589.276840,-592.164754,-75077.358804
11499.010989,9918.759623,-13323.706956,-79367.493593
11499.013627,-34641.638086,-740.205942,-79061.055394
11499.016266,-15100.201217,16580.613101,-74158.044206
11499.018904,21317.931130,14508.036463,-69101.813920
11499.021543,592.164754,-16432.571912,-77069.207099
11499.024182,-24426.796086,27239.578666,-79980.369991
11499.026820,-16580.613101,7402.059420,-76456.330700
11499.029466,-5773.606348,-18357.107362,-76303.111601
11499.032113,-12139.377449,10955.047942,-76456.330700
11499.034759,-1184.329507,13619.789333,-74158.044206
11499.037405,7550.100608,-4737.318029,-70634.004916
11499.040051,18357.107362,-2220.617826,-72012.976812
11499.042697,-7550.100608,-1036.288319,-77375.645298
11499.045343,-15544.324782,4441.235652,-79367.493593
11499.047990,592.164754,7994.224174,-74004.825107
11499.050636,-31976.896694,6661.853478,-74311.263306
11499.053282,-4441.235652,4737.318029,-76303.111601
11499.055928,6069.688724,6365.771101,-77375.645298
11499.058574,-17320.819043,11843.295072,-80286.808190
11499.061221,-20725.766376,-296.082377,-77835.302597
11499.063867,740.205942,8290.306550,-73851.606007
11499.066513,-740.205942,13175.665768,-74158.044206
11499.069159,-21614.013506,-444.123565,-74158.044206
11499.071805,-23686.590144,17616.901420,-77988.521696
11499.074452,10955.047942,8586.388927,-74158.044206
11499.077098,13767.830521,-16876.695478,-75230.577904
11499.079744,5921.647536,3997.112087,-74311.263306
11499.082390,3997.112087,19985.560434,-73391.948708
11499.085036,-12731.542202,148.041188,-75077.358804
11499.087682,-16136.489536,1480.411884,-78141.740796
11499.090329,5329.482782,38934.832549,-73698.386908
11499.092975,29756.278868,-22502.260637,-72779.072310
11499.095621,11991.336260,-11103.089130,-74770.920605
11499.098267,-20873.807564,29756.278868,-76149.892501
11499.100913,-33457.308578,6069.688724,-77222.426198
11499.103560,-19097.313304,888.247130,-76762.768900
11499.106206,-20873.807564,14952.160028,-77375.645298
11499.108852,-10807.006753,10066.800811,-77222.426198
11499.111498,23242.466579,-5181.441594,-73085.510509
11499.114144,38934.832549,888.247130,-72472.634111
11499.116790,-11991.336260,-10214.842000,-78907.836294
11499.119437,-13175.665768,16432.571912,-75077.358804
11499.122083,28275.866984,-5921.647536,-72779.072310
11499.124729,22206.178260,-8586.388927,-76149.892501
11499.127375,-26351.331535,25315.043216,-76762.768900
11499.130021,-22502.260637,-1776.494261,-76149.892501
11499.132668,10807.006753,148.041188,-75690.235202
11499.135315,1924.535449,10214.842000,-76149.892501
11499.137963,-6217.729913,16284.530724,-78907.836294
11499.140611,14952.160028,444.123565,-70327.566716
11499.143259,-5033.400406,-296.082377,-73545.167808
11499.145906,-44264.315332,20577.725188,-76762.768900
11499.148554,-25463.084405,2368.659014,-81665.780087
11499.151202,9326.594869,-1924.535449,-80286.808190
11499.153850,11991.336260,9030.512492,-75537.016103
11499.156497,-23686.590144,6513.812290,-73391.948708
11499.159145,2960.823768,4293.194464,-67876.061123
11499.161793,13027.624579,-18505.148550,-80440.027290
11499.164441,-6661.853478,-6069.688724,-85189.819378
11499.167089,-40859.367998,9030.512492,-81818.999186
11499.169736,8882.471304,4293.194464,-76456.330700
11499.172384,7105.977043,3552.988522,-72012.976812
11499.175032,6069.688724,-5033.400406,-74464.482406
11499.177680,-7105.977043,14063.912898,-76609.549800
11499.180327,2368.659014,12879.583391,-76149.892501
11499.182975,2812.782580,-444.123565,-77988.521696
11499.185623,-21317.931130,14656.077652,-76762.768900
11499.188271,20133.601622,25759.166782,-71553.319513
11499.190918,35974.008781,-7402.059420,-73238.729609
11499.193566,-3552.988522,-5181.441594,-76762.768900
11499.196214,-23390.507767,14508.036463,-77835.302597
11499.198862,23094.425390,1924.535449,-74770.920605
11499.201510,34937.720462,20281.642811,-76303.111601
11499.204157,-1332.370696,7105.977043,-74617.701505
11499.206805,-20725.766376,-3256.906145,-74770.920605
11499.209453,1480.411884,12879.583391,-74924.139704
11499.212101,-18505.148550,-15100.201217,-80899.684589
11499.214748,-53738.951389,3849.070898,-80133.589091
11499.217396,-2812.782580,17024.736666,-73851.606007
11499.220044,30200.402434,0.000000,-70327.566716
11499.222692,8882.471304,-8734.430116,-73391.948708
11499.225339,-17912.983796,17764.942608,-76149.892501
11499.227987,-1480.411884,-10658.965565,-77682.083497
11499.230635,26943.496289,6957.935855,-73238.729609
11499.233283,14952.160028,28127.825796,-73545.167808
11499.235931,-23094.425390,-9770.718434,-74770.920605
11499.238578,-16432.571912,-8882.471304,-77988.521696
11499.241115,14508.036463,13323.706956,-70327.566716
11499.243652,2220.617826,6809.894666,-77375.645298
11499.246189,21169.889941,-3108.864956,-72625.853210
11499.248726,8290.306550,-7994.224174,-73085.510509
11499.251262,-11547.212695,7254.018232,-74004.825107
11499.253799,14508.036463,3701.029710,-73238.729609
11499.256336,1776.494261,-5477.523971,-82278.656485
11499.258873,-6069.688724,14508.036463,-75996.673402
11499.261410,-18061.024985,4737.318029,-73085.510509
11499.263947,5033.400406,4293.194464,-70634.004916
11499.266483,8290.306550,-6069.688724,-72012.976812
11499.269020,296.082377,444.123565,-78294.959896
11499.271557,-29016.072926,21762.054695,-78754.617194
11499.274094,-41303.491564,28571.949361,-77988.521696
11499.276631,-22502.260637,-12139.377449,-76609.549800
11499.279168,10658.965565,-1184.329507,-74464.482406
11499.281704,24574.837274,18949.272115,-72472.634111
11499.284241,16728.654289,-9030.512492,-74004.825107
11499.286778,-13175.665768,10362.883188,-76456.330700
11499.289315,-19393.395680,11399.171507,-77835.302597
11499.291852,1480.411884,-7698.141797,-74617.701505
11499.294388,7846.182985,-1480.411884,-74158.044206
11499.296925,-5773.606348,19541.436869,-74770.920605
11499.299462,-6069.688724,-17764.942608,-76303.111601
11499.301999,27979.784608,3997.112087,-75537.016103
11499.304536,-1924.535449,16284.530724,-76609.549800
11499.307073,-25315.043216,-3849.070898,-76609.549800
11499.309609,14211.954086,7994.224174,-73851.606007
11499.312146,26795.455100,296.082377,-72625.853210
11499.314683,-26055.249158,13175.665768,-76915.987999
11499.317220,-11103.089130,8438.347739,-76456.330700
11499.319757,27979.784608,-8586.388927,-76609.549800
11499.322294,2812.782580,12879.583391,-77375.645298
11499.324830,-26647.413912,11399.171507,-75690.235202
11499.327367,-444.123565,3108.864956,-73851.606007
11499.329904,12731.542202,-2516.700203,-76149.892501
11499.332441,5921.647536,12879.583391,-77835.302597
11499.334978,-6957.935855,9030.512492,-78907.836294
11499.337514,8290.306550,4441.235652,-73698.386908
11499.340051,-11399.171507,1776.494261,-70327.566716
11499.342617,-10658.965565,3256.906145,-80286.808190
11499.345183,-30940.608376,6513.812290,-83964.066581
11499.347750,-6957.935855,3108.864956,-80440.027290
11499.350316,6365.771101,7846.182985,-75230.577904
11499.352882,-7994.224174,22502.260637,-71246.881314
11499.355448,2960.823768,-12139.377449,-73851.606007
11499.358014,41007.409187,-10066.800811,-77682.083497
11499.360580,13767.830521,13175.665768,-77988.521696
11499.363146,-15692.365970,9770.718434,-77528.864398
11499.365712,-17616.901420,12435.459826,-73545.167808
11499.368278,17764.942608,-4441.235652,-72012.976812
11499.370844,9030.512492,3404.947333,-74464.482406
11499.373410,-7994.224174,7105.977043,-78907.836294
11499.375976,25018.960840,-1036.288319,-76149.892501
11499.378542,4737.318029,-296.082377,-74924.139704
11499.381108,-22502.260637,12287.418637,-75077.358804
11499.383675,-2220.617826,12287.418637,-73698.386908
11499.386241,28127.825796,-2072.576638,-75230.577904
11499.388807,1332.370696,8290.306550,-79061.055394
11499.391373,-27683.702231,6069.688724,-76609.549800
11499.393939,-30052.361245,-148.041188,-75690.235202
11499.396505,-2960.823768,19097.313304,-73238.729609
11499.399071,-18505.148550,-4589.276840,-76303.111601
11499.401637,-1480.411884,23094.425390,-75690.235202
11499.404203,28423.908173,-296.082377,-75996.673402
11499.406769,2516.700203,-13027.624579,-76609.549800
11499.409335,-20577.725188,19541.436869,-74464.482406
11499.411901,5773.606348,592.164754,-72625.853210
11499.414467,21169.889941,-296.082377,-73085.510509
11499.417033,-21762.054695,12583.501014,-79367.493593
11499.419600,-48409.468607,-740.205942,-79980.369991
11499.422166,-7994.224174,1924.535449,-77528.864398
11499.424732,-1184.329507,14656.077652,-73698.386908
11499.427298,27387.619854,8438.347739,-70021.128517
11499.429864,26203.290347,-5033.400406,-71859.757712
11499.432430,18949.272115,-10658.965565,-74770.920605
11499.434996,-1036.288319,-5033.400406,-74004.825107
11499.437562,-13471.748144,3256.906145,-75996.673402
11499.440128,-10510.924376,7550.100608,-76915.987999
11499.442694,-22058.137072,7402.059420,-81052.903688
11499.445280,-9622.677246,9326.594869,-76456.330700
11499.447866,-3404.947333,4885.359217,-75077.358804
11499.450452,-1184.329507,17024.736666,-72779.072310
11499.453038,-8438.347739,10510.924376,-72932.291410
11499.455624,-24130.713709,11695.253884,-77069.207099
11499.458210,-19985.560434,26499.372724,-78141.740796
11499.460796,-43524.109390,8734.430116,-78601.398095
11499.463382,-14656.077652,-6661.853478,-75996.673402
11499.465968,20429.683999,17024.736666,-71553.319513
11499.468554,13175.665768,0.000000,-74158.044206
11499.471140,-21317.931130,4145.153275,-75843.454302
11499.473726,-2812.782580,13619.789333,-74924.139704
11499.476312,19837.519246,-12731.542202,-75996.673402
11499.478898,3256.906145,-888.247130,-77375.645298
11499.481484,-18505.148550,25463.084405,-73698.386908
11499.484070,-11103.089130,-14508.036463,-77835.302597
11499.486656,-10214.842000,20725.766376,-76915.987999
11499.489242,-3552.988522,18357.107362,-76762.768900
11499.491828,-15100.201217,-4885.359217,-76609.549800
11499.494414,23834.631332,592.164754,-74464.482406
11499.497000,13027.624579,-4441.235652,-75077.358804
11499.499586,-27979.784608,18949.272115,-75077.358804
11499.502172,8438.347739,6661.853478,-73238.729609
11499.504758,35233.802839,-14656.077652,-76303.111601
11499.507344,-8142.265362,17320.819043,-79673.931792
11499.509930,-33161.226202,11991.336260,-77528.864398
11499.512516,5033.400406,592.164754,-72779.072310
11499.515102,25759.166782,888.247130,-72932.291410
11499.517688,-11991.336260,7254.018232,-80593.246390
11499.520274,-7846.182985,2368.659014,-79520.712692
11499.522860,42931.944636,6217.729913,-66956.746525
11499.525446,24130.713709,2812.782580,-70787.224015
11499.528045,-3256.906145,1628.453072,-77528.864398
11499.530643,444.123565,-7254.018232,-81206.122788
11499.533241,17320.819043,10807.006753,-75230.577904
11499.535839,5921.647536,21169.889941,-67263.184724
11499.538437,-3701.029710,2960.823768,-71859.757712
11499.541035,30496.484810,4737.318029,-72932.291410
11499.543633,25315.043216,4293.194464,-77069.207099
11499.546231,-7105.977043,2072.576638,-79061.055394
11499.548829,-1924.535449,6661.853478,-73851.606007
11499.551427,5625.565159,3256.906145,-73851.606007
11499.554025,-10807.006753,15692.365970,-76149.892501
11499.556623,-21762.054695,15248.242405,-76149.892501
11499.559221,28423.908173,15248.242405,-74311.263306
11499.561819,42191.738694,-9030.512492,-75230.577904
11499.564417,-7550.100608,1776.494261,-77222.426198
11499.567015,-23982.672521,15988.448347,-74770.920605
11499.569613,26499.372724,296.082377,-71859.757712
11499.572211,35233.802839,15544.324782,-72932.291410
11499.574809,-24722.878463,2220.617826,-77682.083497
11499.577407,-28719.990550,1776.494261,-76149.892501
11499.580005,5625.565159,19689.478057,-72472.634111
11499.582603,-9030.512492,-148.041188,-76149.892501
11499.585201,9178.553681,27535.661042,-74311.263306
11499.587799,15988.448347,7402.059420,-75077.358804
11499.590397,27683.702231,-8438.347739,-72472.634111
11499.592995,8882.471304,7550.100608,-73238.729609
11499.595593,-1628.453072,3404.947333,-74924.139704
11499.598191,6217.729913,-888.247130,-74770.920605
11499.600789,-18357.107362,11843.295072,-77375.645298
11499.603387,-40119.162056,17172.777854,-75996.673402
11499.605986,8438.347739,7254.018232,-75690.235202
11499.608584,32717.102636,0.000000,-72012.976812
11499.611182,-21169.889941,-9918.759623,-76149.892501
11499.613780,-26647.413912,6365.771101,-79827.150892
11499.616378,4293.194464,5773.606348,-75383.797003
11499.618976,13471.748144,7402.059420,-70940.443115
11499.621574,-10362.883188,9918.759623,-78448.178995
11499.624172,-44264.315332,4293.194464,-82891.532884
11499.626770,-3997.112087,4737.318029,-76303.111601
11499.629368,34493.596897,4145.153275,-74311.263306
11499.631973,-18653.189738,4737.318029,-77528.864398
11499.634578,-55959.569215,19689.478057,-75230.577904
11499.637183,-5181.441594,-5625.565159,-71093.662214
11499.639787,37010.297100,-12731.542202,-76762.768900
11499.642392,8586.388927,13175.665768,-77528.864398
11499.644997,-29756.278868,11251.130318,-77375.645298
11499.647602,-444.123565,740.205942,-72779.072310
11499.650207,9474.636058,-4885.359217,-73085.510509
11499.652812,-4737.318029,-11843.295072,-78601.398095
11499.655417,-53886.992578,30792.567187,-78141.740796
11499.658022,-31236.690752,22206.178260,-76149.892501
11499.660627,17468.860231,-21910.095883,-75690.235202
11499.663232,18209.066173,20281.642811,-74311.263306
11499.665837,14211.954086,-12435.459826,-74770.920605
11499.668441,25018.960840,-6365.771101,-72932.291410
11499.671046,2812.782580,15396.283594,-76609.549800
11499.673651,-31532.773129,8438.347739,-79827.150892
11499.676256,9918.759623,1628.453072,-75077.358804
11499.678861,27831.743419,-6809.894666,-72012.976812
11499.681466,-22798.343014,14359.995275,-75843.454302
11499.684071,-47669.262665,14063.912898,-79673.931792
11499.686676,1924.535449,10807.006753,-77528.864398
11499.689281,36566.173535,-5033.400406,-73545.167808
11499.691886,-2812.782580,740.205942,-76609.549800
11499.694491,-18061.024985,11103.089130,-77528.864398
11499.697095,17764.942608,4293.194464,-71706.538613
11499.699700,-15248.242405,-7698.141797,-79520.712692
11499.702305,-59216.475360,3849.070898,-83810.847481
11499.704910,-51222.251186,20429.683999,-79827.150892
11499.707515,-4885.359217,11695.253884,-77222.426198
11499.710120,5921.647536,11251.130318,-79061.055394
11499.712725,-46040.809592,-740.205942,-85496.257577
11499.715330,-6069.688724,9178.553681,-68795.375720
11499.717935,3404.947333,-6809.894666,-68948.594820
11499.720540,45744.727216,6217.729913,-72012.976812
11499.723145,14952.160028,3256.906145,-79367.493593
11499.725749,-17468.860231,6809.894666,-79214.274493
11499.728354,10510.924376,4441.235652,-71859.757712
11499.730959,12435.459826,-10510.924376,-75690.235202
11499.733564,-2664.741391,16728.654289,-76303.111601
11499.736096,-31088.649564,6809.894666,-77222.426198
11499.738628,-15840.407159,13323.706956,-75230.577904
11499.741160,25611.125593,-5329.482782,-77375.645298
11499.743693,15840.407159,-7846.182985,-77988.521696
11499.746225,6809.894666,4589.276840,-75690.235202
11499.748757,-16284.530724,-4589.276840,-75996.673402
11499.751289,1332.370696,296.082377,-74158.044206
11499.753821,20281.642811,4885.359217,-75383.797003
11499.756353,-17616.901420,6957.935855,-77222.426198
11499.758885,-23834.631332,10955.047942,-75690.235202
11499.761417,-31384.731941,-12139.377449,-79827.150892
11499.763949,-47521.221476,2960.823768,-79673.931792
11499.766481,-1184.329507,14359.995275,-74464.482406
11499.769013,36862.255912,5181.441594,-69561.471218
11499.771545,23390.507767,-8586.388927,-74004.825107
11499.774077,-4885.359217,5921.647536,-77375.645298
11499.776610,28127.825796,-3256.906145,-74158.044206
11499.779142,21910.095883,-148.041188,-74004.825107
11499.781674,-29904.320057,22650.301825,-76609.549800
11499.784206,-12731.542202,21614.013506,-71246.881314
11499.786738,-4885.359217,-9622.677246,-74770.920605
11499.789270,-28127.825796,-7994.224174,-81052.903688
11499.791802,-12731.542202,17468.860231,-78294.959896
11499.794334,7698.141797,6957.935855,-74464.482406
11499.796866,-5477.523971,6365.771101,-70480.785816
11499.799398,-14211.954086,-3552.988522,-74464.482406
11499.801930,-740.205942,-8586.388927,-83351.190182
11499.804462,-14952.160028,14359.995275,-83044.751983
11499.806994,-40119.162056,12139.377449,-80133.589091
11499.809526,-13175.665768,13915.871710,-73085.510509
11499.812059,-23390.507767,6069.688724,-74464.482406
11499.814591,-37454.420665,1036.288319,-79214.274493
11499.817123,-9178.553681,-2072.576638,-79061.055394
11499.819655,26351.331535,8734.430116,-74617.701505
11499.822187,16580.613101,6217.729913,-73238.729609
11499.824719,8290.306550,24574.837274,-70787.224015
11499.827251,19541.436869,-20577.725188,-73851.606007
11499.829783,-10362.883188,-4145.153275,-77682.083497
11499.832315,-42783.903448,32272.979071,-79061.055394
11499.834847,-38342.667796,6365.771101,-77835.302597
11499.837402,2812.782580,1628.453072,-74464.482406
11499.839956,-16580.613101,18653.189738,-76149.892501
11499.842510,2960.823768,5773.606348,-76303.111601
11499.845064,36270.091158,-10955.047942,-74311.263306
11499.847618,41303.491564,12435.459826,-72319.415011
11499.850172,-4885.359217,9326.594869,-76303.111601
11499.852726,888.247130,9326.594869,-77069.207099
11499.855280,-4589.276840,1184.329507,-77222.426198
11499.857834,-46188.850781,1628.453072,-79980.369991
11499.860388,-22798.343014,16876.695478,-75996.673402
11499.862942,24426.796086,3552.988522,-73851.606007
11499.865496,16136.489536,-4885.359217,-75690.235202
11499.868050,1184.329507,6957.935855,-74464.482406
11499.870604,15988.448347,11843.295072,-71246.881314
11499.873159,-16580.613101,5477.523971,-78754.617194
11499.875713,-26647.413912,18801.230927,-76303.111601
11499.878267,-13471.748144,19393.395680,-74770.920605
11499.880821,16876.695478,9918.759623,-75230.577904
11499.883375,-28275.866984,2812.782580,-83351.190182
11499.885929,-42635.862259,740.205942,-82125.437386
11499.888483,22058.137072,9622.677246,-70327.566716
11499.891037,41303.491564,6217.729913,-72319.415011
11499.893591,-2516.700203,-3849.070898,-77375.645298
11499.896145,-13323.706956,4293.194464,-77682.083497
11499.898699,5773.606348,3404.947333,-77222.426198
11499.901253,12139.377449,2960.823768,-72779.072310
11499.903807,-19245.354492,7994.224174,-76609.549800
11499.906361,22650.301825,1332.370696,-74311.263306
11499.908915,26499.372724,296.082377,-74004.825107
11499.911470,-13027.624579,8586.388927,-77528.864398
11499.914024,-15692.365970,15544.324782,-76762.768900
11499.916578,11399.171507,1776.494261,-75843.454302
11499.919132,0.000000,8586.388927,-76149.892501
11499.921686,-18505.148550,3997.112087,-73851.606007
11499.924240,4885.359217,3701.029710,-74464.482406
11499.926794,-148.041188,6661.853478,-75996.673402
11499.929348,-16284.530724,148.041188,-78754.617194
11499.931902,13915.871710,12731.542202,-74617.701505
11499.934456,-4293.194464,-8734.430116,-73698.386908
11499.937010,-12287.418637,-14211.954086,-76762.768900
11499.939512,-23686.590144,18209.066173,-75690.235202
11499.942013,-7994.224174,7105.977043,-76303.111601
11499.944515,-5625.565159,-148.041188,-74924.139704
11499.947016,17616.901420,-2516.700203,-75537.016103
11499.949518,26203.290347,4293.194464,-72932.291410
11499.952019,-3256.906145,2664.741391,-74158.044206
11499.954521,-26647.413912,-4441.235652,-75383.797003
11499.957023,-25759.166782,10807.006753,-75996.673402
11499.959524,1184.329507,6513.812290,-78448.178995
11499.962026,8586.388927,7846.182985,-76609.549800
11499.964527,-10510.924376,1776.494261,-74311.263306
11499.967029,12287.418637,-7402.059420,-70480.785816
11499.969530,-9770.718434,-25907.207970,-81665.780087
11499.972032,-10955.047942,13323.706956,-77682.083497
11499.974533,-17468.860231,7994.224174,-76915.987999
11499.977035,-11251.130318,-14952.160028,-75077.358804
11499.979536,20725.766376,-888.247130,-70634.004916
11499.982038,10510.924376,2960.823768,-74924.139704
11499.984540,-19985.560434,12139.377449,-77528.864398
11499.987041,-10955.047942,2220.617826,-77222.426198
11499.989543,3701.029710,9326.594869,-75843.454302
11499.992044,-29904.320057,15840.407159,-75843.454302
11499.994546,-5477.523971,1480.411884,-73085.510509
11499.997047,39675.038491,-17468.860231,-72012.976812
11499.999549,34049.473332,-19985.560434,-75996.673402
11500.002050,14063.912898,28868.031738,-76762.768900
11500.004552,-8586.388927,-15396.283594,-79673.931792
11500.007053,-9622.677246,7105.977043,-74311.263306
11500.009555,-17912.983796,20133.601622,-75077.358804
11500.012057,-9178.553681,-2960.823768,-76303.111601
11500.014558,31236.690752,-5329.482782,-75690.235202
11500.017060,5625.565159,-6365.771101,-78141.740796
11500.019561,-1332.370696,3849.070898,-76303.111601
11500.022063,19837.519246,5773.606348,-73851.606007
11500.024564,-6513.812290,-888.247130,-77069.207099
11500.027066,-39971.120868,9030.512492,-78141.740796
11500.029567,-36122.049970,13175.665768,-77069.207099
11500.032069,1480.411884,6957.935855,-72779.072310
11500.034570,4737.318029,-4885.359217,-78294.959896
11500.037072,-18653.189738,10807.006753,-80440.027290
11500.039602,-29164.114115,14211.954086,-73851.606007
11500.042133,16728.654289,-3997.112087,-72472.634111
11500.044663,-2812.782580,-1924.535449,-79520.712692
11500.047193,-12583.501014,8586.388927,-80593.246390
11500.049723,34197.514520,4885.359217,-72625.853210
11500.052254,25167.002028,-592.164754,-73085.510509
11500.054784,-11991.336260,1924.535449,-72012.976812
11500.057314,-14952.160028,12583.501014,-75230.577904
11500.059845,8882.471304,14804.118840,-75230.577904
11500.062375,26351.331535,-4441.235652,-76456.330700
11500.064905,3849.070898,13471.748144,-77222.426198
11500.067435,-36418.132346,25315.043216,-74770.920605
11500.069966,-3404.947333,18061.024985,-72472.634111
11500.072496,35233.802839,-16432.571912,-74158.044206
11500.075026,7994.224174,-1480.411884,-78294.959896
11500.077557,-13027.624579,18949.272115,-76915.987999
11500.080087,23834.631332,4441.235652,-73391.948708
11500.082617,26351.331535,11843.295072,-73085.510509
11500.085147,-32717.102636,4293.194464,-76762.768900
11500.087678,-30348.443622,2960.823768,-74924.139704
11500.090208,8142.265362,22650.301825,-75230.577904
11500.092738,-13619.789333,-4589.276840,-77222.426198
11500.095269,-10510.924376,17172.777854,-77528.864398
11500.097799,19393.395680,4293.194464,-75537.016103
11500.100329,16432.571912,-11843.295072,-72472.634111
11500.102859,-6365.771101,10214.842000,-73545.167808
11500.105390,-13175.665768,10362.883188,-76303.111601
11500.107920,-14063.912898,-740.205942,-77528.864398
11500.110450,13027.624579,-4737.318029,-75537.016103
11500.112981,7402.059420,3552.988522,-77375.645298
11500.115511,4441.235652,6217.729913,-70634.004916
11500.118041,9918.759623,-888.247130,-70787.224015
11500.120571,43376.068201,-22650.301825,-77375.645298
11500.123102,15248.242405,-10214.842000,-77375.645298
11500.125632,9178.553681,36122.049970,-75537.016103
11500.128162,-43376.068201,12731.542202,-75077.358804
11500.130693,-59512.557737,-17468.860231,-80440.027290
11500.133223,17764.942608,13027.624579,-77222.426198
11500.135753,20133.601622,13323.706956,-80593.246390
11500.138283,-48261.427418,14804.118840,-77835.302597
11500.140836,-49593.798114,11695.253884,-72779.072310
11500.143389,12731.542202,-10955.047942,-74311.263306
11500.145941,22058.137072,2812.782580,-75996.673402
11500.148494,-12731.542202,4589.276840,-77222.426198
11500.151046,5181.441594,-2960.823768,-74924.139704
11500.153599,2220.617826,592.164754,-74004.825107
11500.156152,-18949.272115,24574.837274,-74617.701505
11500.158704,-28127.825796,8438.347739,-76915.987999
11500.161257,-1480.411884,-15248.242405,-76303.111601
11500.163809,12287.418637,21317.931130,-74770.920605
11500.166362,12287.418637,-7994.224174,-77682.083497
11500.168915,8438.347739,4885.359217,-76149.892501
11500.171467,-4145.153275,7994.224174,-74004.825107
11500.174020,-14211.954086,-1776.494261,-74924.139704
11500.176572,5329.482782,-5033.400406,-77375.645298
11500.179125,-6513.812290,-5033.400406,-78754.617194
11500.181678,8586.388927,3849.070898,-74924.139704
11500.184230,16136.489536,6809.894666,-73238.729609
11500.186783,27831.743419,-3701.029710,-75843.454302
11500.189335,-18505.148550,8290.306550,-79367.493593
11500.191888,-31088.649564,12139.377449,-78141.740796
11500.194441,5181.441594,6217.729913,-72625.853210
11500.196993,-12287.418637,-3552.988522,-80899.684589
11500.199546,-43376.068201,10807.006753,-79673.931792
11500.202098,-25611.125593,296.082377,-77835.302597
11500.204651,-1628.453072,-6809.894666,-76609.549800
11500.207204,18653.189738,6513.812290,-75383.797003
11500.209756,32272.979071,740.205942,-74617.701505
11500.212309,17024.736666,-15988.448347,-79214.274493
11500.214861,1184.329507,4737.318029,-75690.235202
11500.217414,8438.347739,12435.459826,-73851.606007
11500.219967,-1628.453072,8142.265362,-74311.263306
11500.222519,5033.400406,-1628.453072,-77375.645298
11500.225072,8586.388927,8882.471304,-77835.302597
11500.227625,-21614.013506,20873.807564,-76762.768900
11500.230177,6513.812290,22946.384202,-72319.415011
11500.232730,27979.784608,-14063.912898,-74311.263306
11500.235282,1628.453072,-1184.329507,-77375.645298
11500.237835,-19541.436869,20577.725188,-77528.864398
11500.240388,14063.912898,2368.659014,-75690.235202
11500.242896,26351.331535,6809.894666,-73085.510509
11500.245404,-30940.608376,6513.812290,-76303.111601
11500.247912,-43376.068201,4293.194464,-76762.768900
11500.250421,-16432.571912,27091.537477,-74311.263306
11500.252929,-2812.782580,-3108.864956,-75383.797003
11500.255437,10362.883188,18949.272115,-76303.111601
11500.257945,19097.313304,1332.370696,-76915.987999
11500.260454,-3404.947333,-12731.542202,-74004.825107
11500.262962,-18949.272115,17320.819043,-73545.167808
11500.265470,-10214.842000,7994.224174,-74924.139704
11500.267978,740.205942,2220.617826,-76149.892501
11500.270487,3701.029710,6661.853478,-78601.398095
11500.272995,-21021.848753,7105.977043,-79214.274493
11500.275503,-8882.471304,4589.276840,-73851.606007
11500.278012,48705.550984,-9178.553681,-67876.061123
11500.280520,19689.478057,-20577.725188,-76609.549800
11500.283028,15396.283594,-7698.141797,-78601.398095
11500.285536,-34641.638086,9474.636058,-76609.549800
11500.288045,-44856.480085,-888.247130,-75077.358804
11500.290553,4293.194464,-2368.659014,-74464.482406
11500.293061,21317.931130,9178.553681,-79520.712692
11500.295569,-42043.697506,30644.525999,-78601.398095
11500.298078,-55663.486838,7698.141797,-75996.673402
11500.300586,20281.642811,-6069.688724,-74158.044206
11500.303094,21614.013506,888.247130,-75077.358804
11500.305603,-18357.107362,8438.347739,-75230.577904
11500.308111,444.123565,6513.812290,-72319.415011
11500.310619,-14063.912898,-444.123565,-75077.358804
11500.313127,8882.471304,17616.901420,-73851.606007
11500.315636,11399.171507,-7550.100608,-75690.235202
11500.318144,6957.935855,-7698.141797,-75077.358804
11500.320652,888.247130,21762.054695,-72779.072310
11500.323160,-26499.372724,-10807.006753,-80440.027290
11500.325669,-30348.443622,24574.837274,-78294.959896
11500.328177,-148.041188,14063.912898,-75383.797003
11500.330685,28423.908173,-12583.501014,-73238.729609
11500.333193,30792.567187,6365.771101,-73851.606007
11500.335702,5329.482782,12287.418637,-75077.358804
11500.338210,16728.654289,14656.077652,-74924.139704
11500.340718,-6365.771101,5181.441594,-76762.768900
11500.343253,-18357.107362,1184.329507,-79061.055394
11500.345788,-33753.390955,9178.553681,-77835.302597
11500.348324,7402.059420,5773.606348,-72932.291410
11500.350859,25907.207970,-5773.606348,-73238.729609
11500.353394,27535.661042,16876.695478,-70480.785816
11500.355929,41599.573940,10510.924376,-72319.415011
11500.358464,34197.514520,-10214.842000,-70787.224015
11500.360999,4885.359217,-2812.782580,-72012.976812
11500.363534,-5329.482782,4737.318029,-79520.712692
11500.366069,13915.871710,5033.400406,-76762.768900
11500.368604,-1924.535449,9030.512492,-77682.083497
11500.371140,-17764.942608,9918.759623,-74158.044206
11500.373675,-11843.295072,11399.171507,-74464.482406
11500.376210,4885.359217,3701.029710,-74924.139704
11500.378745,6661.853478,12287.418637,-74770.920605
11500.381280,1332.370696,1184.329507,-76915.987999
11500.383815,18061.024985,-20577.725188,-77988.521696
11500.386350,-1184.329507,7994.224174,-75230.577904
11500.388885,-20873.807564,14804.118840,-74924.139704
11500.391420,740.205942,-1184.329507,-74770.920605
11500.393956,12731.542202,1924.535449,-75996.673402
11500.396491,-17172.777854,-7402.059420,-80593.246390
11500.399026,-11103.089130,6069.688724,-76149.892501
11500.401561,31828.855506,5773.606348,-70480.785816
11500.404096,14804.118840,-2960.823768,-74158.044206
11500.406631,-6365.771101,-1184.329507,-77375.645298
11500.409166,-19245.354492,2960.823768,-79520.712692
11500.411701,-34641.638086,-2516.700203,-76609.549800
11500.414236,-23834.631332,14804.118840,-74311.263306
11500.416771,-6217.729913,20577.725188,-74617.701505
11500.419307,5773.606348,-12879.583391,-76456.330700
11500.421842,12583.501014,5329.482782,-74617.701505
11500.424377,1776.494261,888.247130,-75537.016103
11500.426912,12731.542202,740.205942,-73391.948708
11500.429447,-14952.160028,17320.819043,-76762.768900
11500.431982,-75204.923707,18505.148550,-79214.274493
11500.434517,-30792.567187,22206.178260,-83351.190182
11500.437052,-37010.297100,9474.636058,-78754.617194
11500.439587,46781.015534,5181.441594,-72932.291410
11500.442123,4589.276840,11843.295072,-81665.780087
11500.444678,-27239.578666,29756.278868,-71093.662214
11500.447234,-30052.361245,-6513.812290,-71859.757712
11500.449790,58180.187041,-11991.336260,-69561.471218
11500.452346,37158.338288,444.123565,-75077.358804
11500.454902,-44856.480085,28127.825796,-78601.398095
11500.457457,-31828.855506,12139.377449,-75383.797003
11500.460013,888.247130,-3552.988522,-75383.797003
11500.462569,-22206.178260,-4441.235652,-80286.808190
11500.465125,-27831.743419,1036.288319,-79673.931792
11500.467681,-51518.333563,31680.814318,-75690.235202
11500.470236,-11399.171507,17468.860231,-74770.920605
11500.472792,18653.189738,-19097.313304,-76762.768900
11500.475348,14508.036463,14952.160028,-75537.016103
11500.477904,19541.436869,-9622.677246,-73085.510509
11500.480460,15100.201217,888.247130,-74770.920605
11500.483015,-15692.365970,18357.107362,-78448.178995
11500.485571,-28868.031738,7105.977043,-78141.740796
11500.488127,7994.224174,-10658.965565,-75690.235202
11500.490683,148.041188,-2516.700203,-76609.549800
11500.493239,3256.906145,10362.883188,-78448.178995
11500.495794,21021.848753,11991.336260,-75077.358804
11500.498350,21465.972318,-1332.370696,-74770.920605
11500.500906,-18653.189738,592.164754,-77222.426198
11500.503462,-14508.036463,2516.700203,-75996.673402
11500.506018,8586.388927,9326.594869,-74464.482406
11500.508574,-23094.425390,6513.812290,-76915.987999
11500.511129,-5033.400406,-1332.370696,-76915.987999
11500.513685,23834.631332,-9030.512492,-72319.415011
11500.516241,30348.443622,-5033.400406,-75843.454302
11500.518797,18653.189738,5773.606348,-75843.454302
11500.521353,-11695.253884,10214.842000,-77375.645298
11500.523908,-2960.823768,4441.235652,-75537.016103
11500.526464,24870.919651,-4145.153275,-74311.263306
11500.529020,24278.754898,-7994.224174,-73545.167808
11500.531576,-13027.624579,17320.819043,-76303.111601
11500.534132,-35233.802839,17764.942608,-78754.617194
11500.536687,14211.954086,-19689.478057,-77682.083497
11500.539243,25759.166782,-2072.576638,-75383.797003
11500.541799,-12879.583391,22798.343014,-75537.016103
11500.544355,-9326.594869,7698.141797,-74158.044206
11500.546925,12583.501014,1924.535449,-75077.358804
11500.549495,-18505.148550,-8586.388927,-81052.903688
11500.552065,-26647.413912,8142.265362,-77069.207099
11500.554636,20873.807564,11103.089130,-70634.004916
11500.557206,12879.583391,-6365.771101,-75077.358804
11500.559776,-13027.624579,9918.759623,-77528.864398
11500.562346,-2960.823768,2960.823768,-79214.274493
11500.564917,-30940.608376,-888.247130,-75843.454302
11500.567487,-26499.372724,9474.636058,-74311.263306
11500.570057,-10066.800811,20429.683999,-75383.797003
11500.572627,1628.453072,-7254.018232,-77375.645298
11500.575198,7402.059420,6365.771101,-74464.482406
11500.577768,8142.265362,-5181.441594,-73545.167808
11500.580338,-740.205942,16284.530724,-73698.386908
11500.582908,-48853.592172,13323.706956,-82278.656485
11500.585478,-67062.658345,3701.029710,-79980.369991
11500.588049,-10955.047942,4441.235652,-76149.892501
11500.590619,3552.988522,6069.688724,-79827.150892
11500.593189,-18801.230927,5181.441594,-77988.521696
11500.595759,-40267.203245,17764.942608,-78907.836294
11500.598330,-20133.601622,17320.819043,-72472.634111
11500.600900,11695.253884,-11399.171507,-75383.797003
11500.603470,13175.665768,-9030.512492,-78294.959896
11500.606040,-14359.995275,13619.789333,-76609.549800
11500.608610,-27831.743419,5033.400406,-76609.549800
11500.611181,-2072.576638,5921.647536,-74158.044206
11500.613751,-2960.823768,0.000000,-75690.235202
11500.616321,-22946.384202,12287.418637,-76915.987999
11500.618891,17912.983796,4737.318029,-72472.634111
11500.621462,47373.180288,-16580.613101,-73545.167808
11500.624032,12583.501014,4441.235652,-76915.987999
11500.626602,3997.112087,18357.107362,-75843.454302
11500.629172,-18653.189738,-3701.029710,-78294.959896
11500.631743,-14952.160028,18061.024985,-75230.577904
11500.634313,-24130.713709,13027.624579,-77835.302597
11500.636883,-740.205942,-3256.906145,-76149.892501
11500.639453,38046.585419,8438.347739,-72012.976812
11500.642023,21465.972318,9474.636058,-73085.510509
11500.644594,13619.789333,17468.860231,-75230.577904
11500.647164,-6217.729913,0.000000,-76149.892501
11500.649745,-22058.137072,-9918.759623,-76762.768900
11500.652327,2220.617826,13619.789333,-75843.454302
11500.654908,3108.864956,15248.242405,-75843.454302
11500.657490,13619.789333,10362.883188,-71246.881314
11500.660071,26647.413912,2368.659014,-69867.909418
11500.662653,81866.777185,-9622.677246,-68948.594820
11500.665234,26203.290347,2664.741391,-74924.139704
11500.667815,-38342.667796,8290.306550,-76762.768900
11500.670397,5181.441594,2220.617826,-68948.594820
11500.672978,43672.150578,-15692.365970,-77528.864398
11500.675560,11843.295072,6513.812290,-80593.246390
11500.678141,-52702.663070,20577.725188,-77835.302597
11500.680723,-10214.842000,7846.182985,-70634.004916
11500.683304,54627.198520,-5773.606348,-70787.224015
11500.685885,11843.295072,14656.077652,-79367.493593
11500.688467,-1480.411884,21762.054695,-75383.797003
11500.691048,-1332.370696,-9030.512492,-76609.549800
11500.693630,19245.354492,-7698.141797,-73391.948708
11500.696211,-10955.047942,9474.636058,-77528.864398
11500.698793,-12731.542202,15840.407159,-75996.673402
11500.701374,22058.137072,9918.759623,-71400.100414
11500.703956,-6069.688724,-7698.141797,-75690.235202
11500.706537,-23242.466579,11399.171507,-76915.987999
11500.709118,-1480.411884,17912.983796,-72319.415011
11500.711700,11695.253884,-10658.965565,-73545.167808
11500.714281,34493.596897,16284.530724,-73085.510509
11500.716863,-4885.359217,-148.041188,-77835.302597
11500.719444,-43376.068201,-740.205942,-77682.083497
11500.722026,-18209.066173,17764.942608,-72472.634111
11500.724607,-7698.141797,3849.070898,-74004.825107
11500.727189,-6661.853478,6069.688724,-77988.521696
11500.729770,-8586.388927,10066.800811,-77682.083497
11500.732351,-3701.029710,10066.800811,-73698.386908
11500.734933,50037.921679,-4293.194464,-66650.308326
11500.737514,38342.667796,-4885.359217,-73698.386908
11500.740096,14656.077652,14804.118840,-75077.358804
11500.742677,-22354.219448,11103.089130,-71859.757712
11500.745259,-25907.207970,-7994.224174,-76609.549800
11500.747840,12287.418637,4293.194464,-74770.920605
11500.750422,-8290.306550,4737.318029,-79214.274493
11500.753011,-11547.212695,-2960.823768,-77069.207099
11500.755601,-42487.821071,14656.077652,-77222.426198
11500.758191,-13027.624579,2960.823768,-76303.111601
11500.760781,10955.047942,1332.370696,-73851.606007
11500.763371,-6957.935855,-1924.535449,-77375.645298
11500.765960,-37750.503042,5329.482782,-77835.302597
11500.768550,-4441.235652,13323.706956,-72932.291410
11500.771140,35974.008781,-11547.212695,-73851.606007
11500.773730,20725.766376,-6661.853478,-77069.207099
11500.776320,-14656.077652,24574.837274,-74158.044206
11500.778909,-24574.837274,-6513.812290,-78448.178995
11500.781499,-18653.189738,16284.530724,-78141.740796
11500.784089,-11991.336260,12139.377449,-77069.207099
11500.786679,-22354.219448,-4145.153275,-77528.864398
11500.789269,14508.036463,3108.864956,-73851.606007
11500.791858,20577.725188,13323.706956,-73085.510509
11500.794448,16728.654289,15248.242405,-76149.892501
11500.797038,1332.370696,6957.935855,-75537.016103
11500.799628,-14211.954086,-10214.842000,-75996.673402
11500.802218,7254.018232,7105.977043,-75383.797003
11500.804807,2368.659014,2220.617826,-77528.864398
11500.807397,14063.912898,9474.636058,-71706.538613
11500.809987,34345.555709,6217.729913,-73391.948708
11500.812577,49149.674549,-11399.171507,-73238.729609
11500.815167,8734.430116,11399.171507,-72166.195912
11500.817756,20281.642811,-148.041188,-71859.757712
11500.820346,36566.173535,-5773.606348,-71246.881314
11500.822936,11547.212695,2072.576638,-77528.864398
11500.825526,-14952.160028,10807.006753,-76149.892501
11500.828116,-3997.112087,1480.411884,-74924.139704
11500.830705,11843.295072,10658.965565,-75383.797003
11500.833295,-740.205942,17912.983796,-73085.510509
11500.835885,2368.659014,-6513.812290,-78601.398095
11500.838475,15248.242405,-6365.771101,-76609.549800
11500.841065,-5773.606348,15544.324782,-75843.454302
11500.843654,-15248.242405,15988.448347,-75996.673402
11500.846244,-592.164754,-1924.535449,-76456.330700
11500.848834,-3997.112087,-7846.182985,-76762.768900
11500.851424,-15396.283594,3849.070898,-75230.577904
11500.854014,2812.782580,8438.347739,-74004.825107
11500.856608,6661.853478,3552.988522,-74924.139704
11500.859203,3404.947333,-148.041188,-76303.111601
11500.861798,-18801.230927,-2960.823768,-79061.055394
11500.864393,-50482.045244,5329.482782,-77988.521696
11500.866987,-27091.537477,13175.665768,-75690.235202
11500.869582,12731.542202,12139.377449,-73698.386908
11500.872177,15692.365970,-11399.171507,-75996.673402
11500.874771,1480.411884,7550.100608,-75383.797003
11500.877366,8882.471304,-3108.864956,-73545.167808
11500.879961,3256.906145,-5625.565159,-76762.768900
11500.882556,5033.400406,14359.995275,-74924.139704
11500.885150,-10066.800811,16580.613101,-74464.482406
11500.887745,-296.082377,13619.789333,-75537.016103
11500.890340,-16580.613101,-3849.070898,-78294.959896
11500.892935,-35825.967593,2220.617826,-80899.684589
11500.895529,-7994.224174,29460.196492,-71553.319513
11500.898124,1924.535449,2664.741391,-72932.291410
11500.900719,10362.883188,-11547.212695,-76609.549800
11500.903313,-13027.624579,11547.212695,-79061.055394
11500.905908,-24870.919651,13619.789333,-76915.987999
11500.908503,-8438.347739,2220.617826,-73851.606007
11500.911098,-5033.400406,-7105.977043,-76609.549800
11500.913692,7698.141797,-7846.182985,-76149.892501
11500.916287,-37158.338288,19541.436869,-76762.768900
11500.918882,-41155.450375,23390.507767,-77528.864398
11500.921476,1628.453072,-12879.583391,-76149.892501
11500.924071,24722.878463,10955.047942,-75077.358804
11500.926666,25463.084405,-7105.977043,-75077.358804
11500.929261,12435.459826,6069.688724,-74311.263306
11500.931855,-6661.853478,9622.677246,-77375.645298
11500.934450,-26351.331535,2220.617826,-77988.521696
11500.937045,-592.164754,-2368.659014,-76303.111601
11500.939644,2516.700203,7846.182985,-74311.263306
11500.942243,10066.800811,17320.819043,-75843.454302
11500.944842,6069.688724,21762.054695,-76456.330700
11500.947442,3108.864956,1628.453072,-77375.645298
11500.950041,-1776.494261,-5625.565159,-74464.482406
11500.952640,-5477.523971,7698.141797,-79061.055394
11500.955239,-12287.418637,10214.842000,-78601.398095
11500.957839,-35825.967593,17320.819043,-76762.768900
11500.960438,-25463.084405,6957.935855,-76303.111601
11500.963037,-12731.542202,444.123565,-75843.454302
11500.965636,-33457.308578,4293.194464,-84423.723880
11500.968236,-24130.713709,18949.272115,-78601.398095
11500.970835,6513.812290,2220.617826,-76915.987999
11500.973434,35233.802839,2368.659014,-75230.577904
11500.976033,2960.823768,11843.295072,-74770.920605
11500.978633,-12139.377449,16728.654289,-76149.892501
11500.981232,-10807.006753,1184.329507,-75537.016103
11500.983831,6661.853478,-3701.029710,-74617.701505
11500.986430,-3256.906145,20873.807564,-76915.987999
11500.989030,-16580.613101,10362.883188,-77528.864398
11500.991629,148.041188,2072.576638,-74924.139704
11500.994228,1184.329507,-5921.647536,-75843.454302
11500.996827,444.123565,9030.512492,-76149.892501
11500.999427,7698.141797,6661.853478,-73851.606007
11501.002026,-13915.871710,-3701.029710,-74924.139704
11501.004625,-18949.272115,19097.313304,-77069.207099
11501.007224,-35381.844028,2664.741391,-79980.369991
11501.009824,-53738.951389,8438.347739,-77988.521696
11501.012423,-11399.171507,8734.430116,-74158.044206
11501.015022,27683.702231,7846.182985,-71553.319513
11501.017622,19689.478057,-8290.306550,-74464.482406
11501.020221,2516.700203,5181.441594,-75690.235202
11501.022820,1036.288319,2368.659014,-73391.948708
11501.025419,-22946.384202,-2812.782580,-79520.712692
11501.028019,-28275.866984,23834.631332,-80746.465489
11501.030618,-45892.768404,19097.313304,-79673.931792
11501.033217,-23242.466579,13027.624579,-76762.768900
11501.035816,2220.617826,4737.318029,-78141.740796
11501.038416,-14508.036463,11251.130318,-80286.808190
11501.041015,-21021.848753,2516.700203,-74617.701505
11501.043615,-38342.667796,16432.571912,-74770.920605
11501.046215,-10658.965565,8142.265362,-75690.235202
11501.048815,10955.047942,-1776.494261,-76915.987999
11501.051416,-7550.100608,7550.100608,-76762.768900
11501.054016,-12139.377449,7254.018232,-74004.825107
11501.056616,5033.400406,16136.489536,-72012.976812
11501.059216,28571.949361,-15248.242405,-75383.797003
11501.061817,9474.636058,-3552.988522,-76149.892501
11501.064417,-21910.095883,19837.519246,-75230.577904
11501.067017,-26943.496289,11103.089130,-75383.797003
11501.069617,3108.864956,3404.947333,-75537.016103
11501.072218,9770.718434,17172.777854,-78141.740796
11501.074818,592.164754,7846.182985,-75383.797003
11501.077418,27979.784608,-10362.883188,-74311.263306
11501.080018,35974.008781,11991.336260,-72625.853210
11501.082619,19393.395680,6365.771101,-74464.482406
11501.085219,3849.070898,-148.041188,-74770.920605
11501.087819,-13471.748144,-6809.894666,-75996.673402
11501.090419,-7550.100608,14508.036463,-76303.111601
11501.093020,-1036.288319,16432.571912,-77222.426198
11501.095620,-1924.535449,-2664.741391,-75690.235202
11501.098220,18653.189738,5773.606348,-71093.662214
11501.100820,41895.656317,2072.576638,-72166.195912
11501.103421,36122.049970,-8882.471304,-72779.072310
11501.106021,12139.377449,2368.659014,-72932.291410
11501.108621,-28719.990550,8882.471304,-77835.302597
11501.111221,-17320.819043,1776.494261,-79367.493593
11501.113822,21614.013506,-7254.018232,-78601.398095
11501.116422,23390.507767,5625.565159,-76915.987999
11501.119022,-9030.512492,20281.642811,-74617.701505
11501.121622,-32865.143825,12731.542202,-76303.111601
11501.124223,-6069.688724,-18801.230927,-77375.645298
11501.126823,12731.542202,-9326.594869,-77375.645298
11501.129423,3701.029710,27091.537477,-75383.797003
11501.132023,9770.718434,5329.482782,-74617.701505
11501.134623,14804.118840,-9178.553681,-74004.825107
11501.137224,1332.370696,-10510.924376,-77682.083497
11501.139824,-17024.736666,2072.576638,-76149.892501
11501.142424,5181.441594,10955.047942,-73698.386908
11501.145024,-2368.659014,-296.082377,-75383.797003
11501.147625,-17468.860231,10807.006753,-77528.864398
11501.150226,-43079.985824,-5477.523971,-80133.589091
11501.152827,-40119.162056,6957.935855,-77375.645298
11501.155428,16580.613101,3404.947333,-73698.386908
11501.158028,31088.649564,-148.041188,-73851.606007
11501.160629,8290.306550,1184.329507,-73851.606007
11501.163230,-3108.864956,7994.224174,-74464.482406
11501.165831,-19541.436869,148.041188,-78294.959896
11501.168431,15988.448347,3404.947333,-70940.443115
11501.171032,35677.926404,8586.388927,-71093.662214
11501.173633,30052.361245,-8142.265362,-73851.606007
11501.176234,5625.565159,4885.359217,-70480.785816
11501.178835,-5033.400406,1332.370696,-72012.976812
11501.181435,25759.166782,-7550.100608,-73391.948708
11501.184036,8438.347739,1036.288319,-75383.797003
11501.186637,-49001.633360,9178.553681,-78754.617194
11501.189238,-31828.855506,8142.265362,-76762.768900
11501.191838,23982.672521,2220.617826,-74464.482406
11501.194439,592.164754,1036.288319,-78141.740796
11501.197040,-33753.390955,1332.370696,-78448.178995
11501.199641,-34641.638086,-6513.812290,-75383.797003
11501.202242,-28868.031738,18061.024985,-73391.948708
11501.204842,-23686.590144,15840.407159,-76915.987999
11501.207443,-6513.812290,-5477.523971,-78601.398095
11501.210044,17024.736666,14656.077652,-74464.482406
11501.212645,34049.473332,-14063.912898,-73698.386908
11501.215245,11399.171507,10214.842000,-74924.139704
11501.217846,-15840.407159,14952.160028,-76762.768900
11501.220447,-24130.713709,-4737.318029,-76456.330700
11501.223048,4145.153275,1184.329507,-75996.673402
11501.225649,15544.324782,19393.395680,-74464.482406
11501.228249,21169.889941,4589.276840,-74617.701505
11501.230850,16580.613101,-14063.912898,-74924.139704
11501.233451,12435.459826,-13915.871710,-74311.263306
11501.236052,11547.212695,-9178.553681,-77069.207099
11501.238652,30496.484810,11103.089130,-70174.347617
11501.241253,40119.162056,-5329.482782,-72932.291410
11501.243854,23390.507767,2960.823768,-73085.510509
11501.246455,-1628.453072,5477.523971,-73085.510509
11501.249056,7254.018232,3701.029710,-70174.347617
11501.251609,31384.731941,-5181.441594,-73698.386908
11501.254163,26647.413912,3552.988522,-77375.645298
11501.256717,-11695.253884,8882.471304,-79520.712692
11501.259271,-24130.713709,15692.365970,-77988.521696
11501.261825,-3701.029710,9770.718434,-72932.291410
11501.264379,7698.141797,-13027.624579,-76303.111601
11501.266933,11547.212695,-14656.077652,-77988.521696
11501.269487,-7994.224174,10066.800811,-78907.836294
11501.272041,-7254.018232,18061.024985,-75077.358804
11501.274594,-740.205942,444.123565,-75690.235202
11501.277148,-16136.489536,-7402.059420,-78448.178995
11501.279702,-13323.706956,12583.501014,-75383.797003
11501.282256,18357.107362,10214.842000,-71859.757712
11501.284810,-2072.576638,-9030.512492,-76303.111601
11501.287364,-23390.507767,13915.871710,-78294.959896
11501.289918,-42191.738694,1036.288319,-78907.836294
11501.292472,-29756.278868,9030.512492,-76456.330700
11501.295025,23686.590144,-3552.988522,-73851.606007
11501.297579,14508.036463,6809.894666,-74311.263306
11501.300133,21910.095883,-9326.594869,-75996.673402
11501.302687,3849.070898,13471.748144,-74924.139704
11501.305241,1924.535449,-592.164754,-72012.976812
11501.307795,-17912.983796,-3701.029710,-74311.263306
11501.310349,-26943.496289,11991.336260,-76609.549800
11501.312903,12731.542202,2072.576638,-75077.358804
11501.315457,2516.700203,-1332.370696,-76609.549800
11501.318010,-35529.885216,5921.647536,-76762.768900
11501.320564,-12583.501014,148.041188,-75996.673402
11501.323118,23094.425390,-888.247130,-74464.482406
11501.325672,-17024.736666,16136.489536,-76762.768900
11501.328226,-46484.933158,11399.171507,-76762.768900
11501.330780,-36270.091158,12287.418637,-76762.768900
11501.333334,6661.853478,592.164754,-73545.167808
11501.335888,-12583.501014,13027.624579,-76609.549800
11501.338442,-9030.512492,2516.700203,-75690.235202
11501.340995,32865.143825,-10362.883188,-72166.195912
11501.343549,28571.949361,3108.864956,-73851.606007
11501.346103,-26055.249158,15692.365970,-76915.987999
11501.348657,-31088.649564,1628.453072,-78141.740796
11501.351211,-7105.977043,8142.265362,-76915.987999
11501.353774,18653.189738,2664.741391,-74004.825107
11501.356337,29312.155303,-1036.288319,-75383.797003
11501.358901,17764.942608,13915.871710,-73391.948708
11501.361464,37750.503042,5625.565159,-71859.757712
11501.364027,25315.043216,-3552.988522,-73238.729609
11501.366590,-11251.130318,-5921.647536,-77835.302597
11501.369153,-25463.084405,20429.683999,-78141.740796
11501.371716,-20429.683999,21317.931130,-76762.768900
11501.374280,-12583.501014,-9918.759623,-78754.617194
11501.376843,33457.308578,5773.606348,-75230.577904
11501.379406,1628.453072,17468.860231,-77682.083497
11501.381969,-17468.860231,13471.748144,-73698.386908
11501.384532,-8142.265362,1332.370696,-76149.892501
11501.387096,21169.889941,12583.501014,-74617.701505
11501.389659,2368.659014,10955.047942,-78754.617194
11501.392222,-11399.171507,8438.347739,-76915.987999
11501.394785,5181.441594,6809.894666,-73698.386908
11501.397348,30644.525999,18061.024985,-71093.662214
11501.399911,32717.102636,14211.954086,-71246.881314
11501.402475,-4885.359217,-13323.706956,-78448.178995
11501.405038,-16136.489536,4737.318029,-77682.083497
11501.407601,-3997.112087,20725.766376,-75537.016103
11501.410164,-4589.276840,9326.594869,-76149.892501
11501.412727,-11991.336260,-9622.677246,-77069.207099
11501.415291,3849.070898,4885.359217,-73698.386908
11501.417854,13175.665768,7550.100608,-73545.167808
11501.420417,-15396.283594,-592.164754,-76149.892501
11501.422980,-18357.107362,16580.613101,-76149.892501
11501.425543,-26499.372724,-5773.606348,-79520.712692
11501.428107,-39526.997303,8882.471304,-77528.864398
11501.430670,-11991.336260,9326.594869,-74158.044206
11501.433233,21614.013506,2368.659014,-72779.072310
11501.435796,17468.860231,-11399.171507,-74464.482406
11501.438359,-9622.677246,10955.047942,-76609.549800
11501.440922,-23686.590144,-444.123565,-79367.493593
11501.443486,-30792.567187,1332.370696,-81052.903688
11501.446049,-55219.363273,16876.695478,-80133.589091
11501.448612,-24426.796086,11547.212695,-77988.521696
11501.451175,-15692.365970,2368.659014,-80899.684589
11501.453738,-37158.338288,7254.018232,-82125.437386
11501.456309,-20429.683999,12287.418637,-74158.044206
11501.458880,-10510.924376,17616.901420,-72625.853210
11501.461451,8290.306550,-3108.864956,-74311.263306
11501.464021,-8290.306550,-4885.359217,-77835.302597
11501.466592,-16432.571912,7994.224174,-77222.426198
11501.469163,-592.164754,11695.253884,-75077.358804
11501.471734,-296.082377,-4885.359217,-75077.358804
11501.474305,-42043.697506,22354.219448,-75690.235202
11501.476875,-31828.855506,19985.560434,-76149.892501
11501.479446,15100.201217,-16432.571912,-75537.016103
11501.482017,27683.702231,9770.718434,-75077.358804
11501.484588,15988.448347,-6365.771101,-77835.302597
11501.487158,3256.906145,13915.871710,-75843.454302
11501.489729,17764.942608,9918.759623,-73851.606007
11501.492300,-14656.077652,9622.677246,-75383.797003
11501.494871,-18801.230927,-3701.029710,-77835.302597
11501.497441,-16432.571912,18061.024985,-76303.111601
11501.500012,9622.677246,10510.924376,-75077.358804
11501.502583,28127.825796,-17616.901420,-74004.825107
11501.505154,31532.773129,-11399.171507,-75230.577904
11501.507725,10362.883188,5773.606348,-76915.987999
11501.510295,-34049.473332,16876.695478,-79827.150892
11501.512866,-74316.676577,7254.018232,-76915.987999
11501.515437,-17172.777854,3849.070898,-81359.341888
11501.518008,20577.725188,-2960.823768,-76456.330700
11501.520578,2368.659014,2072.576638,-79827.150892
11501.523149,-29608.237680,25463.084405,-78907.836294
11501.525720,-17024.736666,6069.688724,-76149.892501
11501.528291,61881.216751,-21021.848753,-72166.195912
11501.530862,60400.804867,5921.647536,-73085.510509
11501.533432,5625.565159,22946.384202,-74464.482406
11501.536003,-26795.455100,-7994.224174,-75537.016103
11501.538574,-15692.365970,10214.842000,-76762.768900
11501.541145,-24130.713709,18653.189738,-79827.150892
11501.543715,-16580.613101,5477.523971,-77222.426198
11501.546286,17024.736666,-7994.224174,-73545.167808
11501.548857,27387.619854,9770.718434,-73391.948708
11501.551428,25018.960840,15100.201217,-72012.976812
11501.553998,5921.647536,3997.112087,-75383.797003
11501.556569,-7402.059420,-5329.482782,-77222.426198
11501.559145,-34937.720462,-6513.812290,-79827.150892
11501.561720,-54331.116143,21614.013506,-79061.055394
11501.564295,-7698.141797,6957.935855,-74158.044206
11501.566871,33753.390955,-10214.842000,-70940.443115
11501.569446,18209.066173,-888.247130,-74004.825107
11501.572021,-296.082377,22946.384202,-73698.386908
11501.574597,-16136.489536,-8290.306550,-79367.493593
11501.577172,16876.695478,1776.494261,-73238.729609
11501.579747,-5773.606348,26203.290347,-75230.577904
11501.582323,6809.894666,8586.388927,-75843.454302
11501.584898,0.000000,7254.018232,-75996.673402
11501.587473,740.205942,6957.935855,-69255.033019
11501.590049,-11843.295072,4293.194464,-73238.729609
11501.592624,-4885.359217,12879.583391,-75383.797003
11501.595199,-3997.112087,12139.377449,-74924.139704
11501.597775,-17172.777854,-1036.288319,-76149.892501
11501.600350,-8586.388927,1184.329507,-75996.673402
11501.602925,-444.123565,22058.137072,-73545.167808
11501.605501,18061.024985,-13619.789333,-75537.016103
11501.608076,10658.965565,-10066.800811,-76149.892501
11501.610651,-10510.924376,15248.242405,-75077.358804
11501.613227,-25463.084405,12139.377449,-74770.920605
11501.615802,-29016.072926,-1184.329507,-78601.398095
11501.618377,-22798.343014,11103.089130,-77988.521696
11501.620953,1924.535449,7402.059420,-75996.673402
11501.623528,31828.855506,-3108.864956,-74924.139704
11501.626103,28275.866984,9030.512492,-72472.634111
11501.628679,5921.647536,-14804.118840,-77682.083497
11501.631254,-20429.683999,-5033.400406,-77835.302597
11501.633829,-21762.054695,27831.743419,-75537.016103
11501.636405,-28127.825796,20725.766376,-76456.330700
11501.638980,3849.070898,-17912.983796,-73698.386908
11501.641555,25315.043216,740.205942,-74770.920605
11501.644131,3404.947333,18061.024985,-72625.853210
11501.646706,-31236.690752,28868.031738,-76762.768900
11501.649281,-14952.160028,-6365.771101,-73238.729609
11501.651857,34345.555709,-20133.601622,-69561.471218
11501.654432,15988.448347,-19837.519246,-82891.532884
11501.657007,-16284.530724,-148.041188,-81052.903688
11501.659583,-2220.617826,1480.411884,-75843.454302
11501.662162,33309.267390,5477.523971,-73238.729609
11501.664740,30496.484810,2368.659014,-74311.263306
11501.667319,-24426.796086,-7105.977043,-75843.454302
11501.669898,-19541.436869,10807.006753,-75077.358804
11501.672477,14656.077652,16728.654289,-75230.577904
11501.675055,3701.029710,-6069.688724,-78141.740796
11501.677634,-2220.617826,-2960.823768,-77222.426198
11501.680213,-16580.613101,9622.677246,-74617.701505
11501.682792,29164.114115,13767.830521,-70480.785816
11501.685370,5625.565159,-4885.359217,-74464.482406
11501.687949,-35381.844028,11547.212695,-79214.274493
11501.690528,-44856.480085,9918.759623,-78907.836294
11501.693107,-14804.118840,14211.954086,-75996.673402
11501.695686,27535.661042,-8734.430116,-74617.701505
11501.698264,25167.002028,-5033.400406,-71859.757712
11501.700843,-7402.059420,15544.324782,-74158.044206
11501.703422,-17320.819043,10658.965565,-76609.549800
11501.706001,-2072.576638,-2664.741391,-74617.701505
11501.708579,15544.324782,444.123565,-75077.358804
11501.711158,-4293.194464,3552.988522,-76303.111601
11501.713737,888.247130,0.000000,-77835.302597
11501.716316,-13471.748144,5329.482782,-79980.369991
11501.718894,-15692.365970,14656.077652,-72625.853210
11501.721473,-16580.613101,6365.771101,-73851.606007
11501.724052,21465.972318,7846.182985,-72319.415011
11501.726631,7105.977043,7994.224174,-74770.920605
11501.729209,-37454.420665,4145.153275,-79367.493593
11501.731788,-20133.601622,-5477.523971,-76762.768900
11501.734367,-27831.743419,-3108.864956,-78141.740796
11501.736946,-27387.619854,19689.478057,-76303.111601
11501.739525,20133.601622,-296.082377,-71553.319513
11501.742103,42043.697506,-17320.819043,-74311.263306
11501.744682,36418.132346,7994.224174,-73238.729609
11501.747261,16728.654289,-2072.576638,-77988.521696
11501.749840,-11103.089130,18357.107362,-75690.235202
11501.752418,-15692.365970,5625.565159,-75843.454302
11501.754997,-6661.853478,-4589.276840,-77222.426198
11501.757576,4737.318029,13175.665768,-76609.549800
11501.760155,28571.949361,13027.624579,-71859.757712
11501.762733,33457.308578,-7550.100608,-72319.415011
11501.765315,1332.370696,8438.347739,-78294.959896
11501.767896,-42635.862259,39082.873738,-78294.959896
11501.770478,-23834.631332,-888.247130,-74770.920605
11501.773059,35825.967593,-7698.141797,-68795.375720
11501.775641,5921.647536,-15692.365970,-76303.111601
11501.778222,34937.720462,1332.370696,-74617.701505
11501.780804,-16136.489536,15988.448347,-76915.987999
11501.783385,-42635.862259,13619.789333,-78141.740796
11501.785967,10955.047942,-888.247130,-73851.606007
11501.788548,56107.610404,-7698.141797,-78141.740796
11501.791130,14656.077652,8142.265362,-78907.836294
11501.793711,-49001.633360,-3701.029710,-77682.083497
11501.796293,-34345.555709,-148.041188,-75077.358804
11501.798874,25315.043216,16580.613101,-72625.853210
11501.801456,19541.436869,-888.247130,-76303.111601
11501.804037,5181.441594,-12139.377449,-77375.645298
11501.806619,18949.272115,1924.535449,-72932.291410
11501.809200,52406.580694,18949.272115,-70787.224015
11501.811782,5033.400406,-1628.453072,-75537.016103
11501.814363,-48557.509795,-9030.512492,-77375.645298
11501.816945,-32717.102636,25907.207970,-74770.920605
11501.819526,-3552.988522,15396.283594,-75690.235202
11501.822108,31532.773129,9770.718434,-75690.235202
11501.824689,15692.365970,-9474.636058,-76609.549800
11501.827271,-14063.912898,1332.370696,-73085.510509
11501.829852,-19245.354492,24722.878463,-73698.386908
11501.832433,-22058.137072,-3552.988522,-79980.369991
11501.835015,8734.430116,8734.430116,-71400.100414
11501.837596,-1036.288319,3404.947333,-74311.263306
11501.840178,4885.359217,5921.647536,-72472.634111
11501.842759,58772.351795,-13027.624579,-72166.195912
11501.845341,-9030.512492,10658.965565,-76915.987999
11501.847922,-61437.093186,12287.418637,-76762.768900
11501.850504,5625.565159,-2664.741391,-73851.606007
11501.853085,45300.603650,-5181.441594,-74770.920605
11501.855667,-37010.297100,5773.606348,-79520.712692
11501.858248,-58920.392983,17616.901420,-76762.768900
11501.860830,5033.400406,1924.535449,-73698.386908
11501.863411,2516.700203,-17468.860231,-78141.740796
11501.865993,-50630.086433,22206.178260,-77988.521696
11501.868575,-8142.265362,16580.613101,-78601.398095
11501.871158,4885.359217,740.205942,-72779.072310
11501.873740,45448.644839,4145.153275,-71859.757712
11501.876323,16728.654289,-8438.347739,-78601.398095
11501.878905,-3701.029710,18209.066173,-75383.797003
11501.881488,4885.359217,6365.771101,-74158.044206
11501.884070,-13915.871710,-7550.100608,-77682.083497
11501.886653,-4589.276840,10510.924376,-77069.207099
11501.889235,32272.979071,23538.548956,-69867.909418
11501.891818,33605.349767,-8142.265362,-72472.634111
11501.894401,-8438.347739,5181.441594,-81206.122788
11501.896983,-32421.020260,35677.926404,-75383.797003
11501.899566,-37454.420665,-2812.782580,-79673.931792
11501.902148,-15988.448347,6069.688724,-71859.757712
11501.904731,-148.041188,2664.741391,-77375.645298
11501.907313,-21910.095883,31532.773129,-78907.836294
11501.909896,-46781.015534,16432.571912,-81359.341888
11501.912478,-12879.583391,9622.677246,-73851.606007
11501.915061,592.164754,15100.201217,-79980.369991
11501.917643,5033.400406,19245.354492,-78754.617194
11501.920226,-11547.212695,-4885.359217,-75383.797003
11501.922808,28571.949361,18357.107362,-71400.100414
11501.925391,46336.891969,6957.935855,-73085.510509
11501.927973,6809.894666,-11251.130318,-77988.521696
11501.930556,-19689.478057,11991.336260,-76609.549800
11501.933139,-17468.860231,19393.395680,-75843.454302
11501.935721,-17616.901420,-1924.535449,-77835.302597
11501.938304,-38342.667796,1924.535449,-76915.987999
11501.940886,-16432.571912,15988.448347,-73698.386908
11501.943469,10066.800811,6365.771101,-72625.853210
11501.946051,24722.878463,-12583.501014,-77069.207099
11501.948634,-17320.819043,-6661.853478,-81359.341888
11501.951216,-56107.610404,17912.983796,-77682.083497
11501.953799,-14063.912898,10362.883188,-72012.976812
11501.956381,17764.942608,-4293.194464,-73238.729609
11501.958964,9030.512492,-2960.823768,-75383.797003
11501.961546,4589.276840,20429.683999,-72625.853210
11501.964129,8142.265362,-4737.318029,-73238.729609
11501.966711,36122.049970,-8290.306550,-77835.302597
11501.969294,3849.070898,-2960.823768,-75537.016103
11501.971877,50482.045244,3849.070898,-73238.729609
11501.974460,23834.631332,11991.336260,-69255.033019
11501.977044,-35233.802839,1332.370696,-72932.291410
11501.979627,-21021.848753,592.164754,-75077.358804
11501.982210,18209.066173,7994.224174,-75996.673402
11501.984793,-8734.430116,3404.947333,-76915.987999
11501.987376,-34049.473332,296.082377,-78294.959896
11501.989959,-29756.278868,-7402.059420,-76915.987999
11501.992543,-22354.219448,17320.819043,-73851.606007
11501.995126,-592.164754,8734.430116,-73851.606007
11501.997709,27831.743419,-3849.070898,-77375.645298
11502.000292,28423.908173,11399.171507,-73698.386908
11502.002875,36122.049970,-9178.553681,-75230.577904
11502.005459,4293.194464,11547.212695,-76456.330700
11502.008042,-16284.530724,7402.059420,-78141.740796
11502.010625,-15396.283594,-4737.318029,-76609.549800
11502.013208,2220.617826,11547.212695,-75230.577904
11502.015791,26795.455100,16136.489536,-72932.291410
11502.018375,26943.496289,-11547.212695,-73238.729609
11502.020958,-1036.288319,7846.182985,-76303.111601
11502.023541,-38046.585419,22946.384202,-80286.808190
11502.026124,12139.377449,-1480.411884,-70787.224015
11502.028707,61881.216751,-12583.501014,-71706.538613
11502.031290,36270.091158,-6069.688724,-71859.757712
11502.033874,15100.201217,1924.535449,-74311.263306
11502.036457,-34937.720462,10955.047942,-80593.246390
11502.039040,-17912.983796,3404.947333,-75537.016103
11502.041623,18949.272115,-13915.871710,-78907.836294
11502.044206,40119.162056,16136.489536,-77835.302597
11502.046790,-8586.388927,-3997.112087,-75537.016103
11502.049373,-45152.562462,3849.070898,-75230.577904
11502.051956,9178.553681,18357.107362,-72779.072310
11502.054539,31680.814318,-2960.823768,-75690.235202
11502.057122,-1184.329507,-6365.771101,-79367.493593
11502.059705,16876.695478,18061.024985,-73238.729609
11502.062289,42931.944636,21465.972318,-70787.224015
11502.064872,7550.100608,-12435.459826,-73851.606007
11502.067455,-53886.992578,-3256.906145,-79827.150892
11502.070038,-42339.779882,28571.949361,-74464.482406
11502.072621,10807.006753,-2072.576638,-74311.263306
11502.075164,42191.738694,-2812.782580,-75996.673402
11502.077707,-6217.729913,592.164754,-77375.645298
11502.080250,-34493.596897,12583.501014,-74158.044206
11502.082793,-11843.295072,17912.983796,-72625.853210
11502.085336,-6069.688724,-2516.700203,-79367.493593
11502.087878,3997.112087,13175.665768,-74311.263306
11502.090421,42931.944636,6365.771101,-69714.690318
11502.092964,38786.791361,-2960.823768,-73238.729609
11502.095507,16580.613101,-10214.842000,-71706.538613
11502.098050,-1480.411884,888.247130,-73851.606007
11502.100593,4293.194464,-4145.153275,-72472.634111
11502.103136,4737.318029,148.041188,-73851.606007
11502.105678,-24130.713709,3256.906145,-78294.959896
11502.108221,-24574.837274,5033.400406,-78448.178995
11502.110764,-4737.318029,-3552.988522,-76149.892501
11502.113307,-35529.885216,-2072.576638,-77682.083497
11502.115850,-1924.535449,5329.482782,-72932.291410
11502.118393,42043.697506,-8290.306550,-71859.757712
11502.120935,21021.848753,2072.576638,-74158.044206
11502.123478,-23834.631332,17616.901420,-75690.235202
11502.126021,-21762.054695,2368.659014,-78448.178995
11502.128564,-13323.706956,15100.201217,-75843.454302
11502.131107,-2516.700203,6217.729913,-74924.139704
11502.133650,9770.718434,148.041188,-76456.330700
11502.136193,22206.178260,14952.160028,-73545.167808
11502.138735,15100.201217,-16728.654289,-77528.864398
11502.141278,-22798.343014,-4145.153275,-78448.178995
11502.143821,-18209.066173,24574.837274,-74924.139704
11502.146364,16284.530724,-6069.688724,-75383.797003
11502.148907,41155.450375,-6217.729913,-71706.538613
11502.151450,15544.324782,8734.430116,-70940.443115
11502.153992,47669.262665,-10955.047942,-70327.566716
11502.156535,29608.237680,-18061.024985,-68335.718422
11502.159078,67802.864287,-25463.084405,-67722.842023
11502.161621,21021.848753,-13619.789333,-76303.111601
11502.164164,-9178.553681,444.123565,-77528.864398
11502.166707,10362.883188,6809.894666,-74004.825107
11502.169250,33161.226202,-7550.100608,-75843.454302
11502.171792,-7402.059420,-7254.018232,-77988.521696
11502.174335,-28275.866984,15100.201217,-75230.577904
11502.176887,14952.160028,13619.789333,-72319.415011
11502.179438,27831.743419,-14508.036463,-76149.892501
11502.181989,11547.212695,9474.636058,-78141.740796
11502.184541,7994.224174,15100.201217,-74770.920605
11502.187092,-18653.189738,-9178.553681,-72932.291410
11502.189643,-23538.548956,-11103.089130,-75843.454302
11502.192195,-35974.008781,30496.484810,-76149.892501
11502.194746,-22354.219448,9178.553681,-77375.645298
11502.197297,35529.885216,-2516.700203,-74464.482406
11502.199849,18209.066173,-3256.906145,-75537.016103
11502.202400,-33161.226202,12731.542202,-76456.330700
11502.204951,-19393.395680,17764.942608,-72932.291410
11502.207503,4145.153275,-1480.411884,-73698.386908
11502.210054,-23242.466579,9178.553681,-82431.875585
11502.212606,-44856.480085,16432.571912,-79520.712692
11502.215157,-21317.931130,7105.977043,-76915.987999
11502.217708,-2664.741391,7402.059420,-71400.100414
11502.220260,17468.860231,1924.535449,-72625.853210
11502.222811,6365.771101,2960.823768,-72932.291410
11502.225362,-18505.148550,7105.977043,-73391.948708
11502.227914,-21762.054695,3997.112087,-74311.263306
11502.230465,5181.441594,6513.812290,-77528.864398
11502.233016,24574.837274,21021.848753,-74464.482406
11502.235568,-6513.812290,296.082377,-76303.111601
11502.238119,-58476.269418,16136.489536,-75230.577904
11502.240670,-37454.420665,16728.654289,-76456.330700
11502.243222,8882.471304,-7698.141797,-77835.302597
11502.245773,24870.919651,9622.677246,-75537.016103
11502.248324,18505.148550,-888.247130,-76303.111601
11502.250876,18653.189738,1184.329507,-74924.139704
11502.253427,20873.807564,6069.688724,-73085.510509
11502.255979,-2664.741391,888.247130,-75537.016103
11502.258537,-7402.059420,4737.318029,-75996.673402
11502.261096,14804.118840,25018.960840,-73238.729609
11502.263654,19837.519246,-7698.141797,-75230.577904
11502.266213,-2368.659014,-9178.553681,-76915.987999
11502.268771,-12287.418637,9622.677246,-74464.482406
11502.271330,29904.320057,6513.812290,-67109.965625
11502.273888,69135.234983,-4589.276840,-69714.690318
11502.276447,39082.873738,-2664.741391,-74464.482406
11502.279005,31680.814318,9178.553681,-67263.184724
11502.281564,-27683.702231,5181.441594,-76149.892501
11502.284122,24574.837274,-14656.077652,-73851.606007
11502.286681,61141.010809,-2516.700203,-74464.482406
11502.289239,10510.924376,296.082377,-78907.836294
11502.291798,-45004.521274,-888.247130,-76762.768900
11502.294357,-25315.043216,8142.265362,-76149.892501
11502.296915,26795.455100,1924.535449,-73545.167808
11502.299474,22354.219448,-5921.647536,-75537.016103
11502.302032,15840.407159,20873.807564,-76609.549800
11502.304591,6069.688724,-6069.688724,-77375.645298
11502.307149,-35233.802839,-5773.606348,-76149.892501
11502.309708,-29608.237680,18505.148550,-73698.386908
11502.312266,-2812.782580,13619.789333,-72779.072310
11502.314825,2368.659014,-4737.318029,-76609.549800
11502.317383,13175.665768,-7698.141797,-78141.740796
11502.319942,-25463.084405,5773.606348,-77069.207099
11502.322500,-17616.901420,15840.407159,-72779.072310
11502.325059,7254.018232,5181.441594,-72625.853210
11502.327617,444.123565,-7402.059420,-78141.740796
11502.330176,-1480.411884,12879.583391,-76149.892501
11502.332735,32421.020260,2516.700203,-75996.673402
11502.335293,-7994.224174,4293.194464,-75690.235202
11502.337852,-49741.839302,21465.972318,-83504.409282
11502.340410,-46632.974346,22946.384202,-79827.150892
11502.342969,-1184.329507,16876.695478,-69408.252119
11502.345527,7550.100608,1332.370696,-70327.566716
11502.348086,8142.265362,-3108.864956,-77069.207099
11502.350644,-22502.260637,2960.823768,-79980.369991
11502.353203,-3997.112087,28571.949361,-72932.291410
11502.355761,29164.114115,-5773.606348,-73851.606007
11502.358320,-17320.819043,1628.453072,-77835.302597
11502.360883,-53590.910201,22354.219448,-77375.645298
11502.363447,-12583.501014,6217.729913,-74158.044206
11502.366011,30052.361245,4441.235652,-74311.263306
11502.368574,26351.331535,-12287.418637,-78294.959896
11502.371138,7105.977043,12731.542202,-76609.549800
11502.373701,4885.359217,9474.636058,-73851.606007
11502.376265,-7550.100608,-6513.812290,-75383.797003
11502.378829,-1924.535449,-5477.523971,-76609.549800
11502.381392,6809.894666,26795.455100,-75843.454302
11502.383956,13767.830521,-444.123565,-75537.016103
11502.386519,3256.906145,-11103.089130,-74617.701505
11502.389083,-9178.553681,-888.247130,-78907.836294
11502.391647,42931.944636,6809.894666,-71859.757712
11502.394210,20873.807564,11843.295072,-74004.825107
11502.396774,-16876.695478,20133.601622,-74770.920605
11502.399337,-4441.235652,9030.512492,-71246.881314
11502.401901,17616.901420,5033.400406,-78448.178995
11502.404464,3108.864956,14359.995275,-80286.808190
11502.407028,-32421.020260,8290.306550,-78754.617194
11502.409592,2812.782580,18061.024985,-73391.948708
11502.412155,30348.443622,-4441.235652,-72779.072310
11502.414719,4885.359217,-10214.842000,-77528.864398
11502.417282,-17764.942608,17912.983796,-76762.768900
11502.419846,-2072.576638,8438.347739,-73238.729609
11502.422410,22798.343014,-10362.883188,-75690.235202
11502.424973,19689.478057,15988.448347,-74311.263306
11502.427537,-13767.830521,1480.411884,-76303.111601
11502.430100,-21910.095883,-9918.759623,-74311.263306
11502.432664,-18653.189738,26055.249158,-73545.167808
11502.435228,-15988.448347,8586.388927,-77682.083497
11502.437791,21614.013506,740.205942,-76149.892501
11502.440355,9474.636058,-6513.812290,-76609.549800
11502.442918,1036.288319,-2368.659014,-73698.386908
11502.445482,-22354.219448,25759.166782,-72012.976812
11502.448045,-4293.194464,2960.823768,-75077.358804
11502.450609,44560.397708,-2368.659014,-71400.100414
11502.453173,6661.853478,13915.871710,-77988.521696
11502.455736,-23390.507767,20873.807564,-79827.150892
11502.458300,21465.972318,6513.812290,-72012.976812
11502.460863,19245.354492,5773.606348,-70480.785816
11502.463431,-20577.725188,11103.089130,-72166.195912
11502.465999,-17764.942608,8734.430116,-73238.729609
11502.468567,7550.100608,10658.965565,-76456.330700
11502.471135,-5033.400406,592.164754,-73238.729609
11502.473703,3256.906145,-2368.659014,-77835.302597
11502.476271,-51962.457128,15396.283594,-76762.768900
11502.478839,-38194.626607,18061.024985,-74158.044206
11502.481406,8882.471304,-6217.729913,-74617.701505
11502.483974,24722.878463,9030.512492,-76915.987999
11502.486542,14359.995275,1332.370696,-77682.083497
11502.489110,148.041188,19837.519246,-74158.044206
11502.491678,-3108.864956,-1628.453072,-75843.454302
11502.494246,-7698.141797,-5477.523971,-77375.645298
11502.496814,3701.029710,19097.313304,-74617.701505
11502.499382,11103.089130,-6217.729913,-75843.454302
11502.501950,-13767.830521,-6957.935855,-78601.398095
11502.504517,-13175.665768,10510.924376,-78141.740796
11502.507085,6069.688724,22502.260637,-74464.482406
11502.509653,1776.494261,12879.583391,-72625.853210
11502.512221,21614.013506,-4589.276840,-73698.386908
11502.514789,53442.869012,-14952.160028,-73238.729609
11502.517357,34493.596897,5773.606348,-71246.881314
11502.519925,5625.565159,1332.370696,-69255.033019
11502.522493,7550.100608,7254.018232,-72779.072310
11502.525061,27091.537477,11843.295072,-75077.358804
11502.527628,42339.779882,5181.441594,-75230.577904
11502.530196,18949.272115,-3404.947333,-73698.386908
11502.532764,-11547.212695,7105.977043,-74004.825107
11502.535332,-11991.336260,17320.819043,-74617.701505
11502.537900,-2368.659014,21169.889941,-75230.577904
11502.540468,-18505.148550,-17468.860231,-78907.836294
11502.543036,-6809.894666,10214.842000,-76609.549800
11502.545604,4145.153275,16728.654289,-73545.167808
11502.548171,-6957.935855,-7698.141797,-73238.729609
11502.550739,-20725.766376,16432.571912,-75843.454302
11502.553307,-23538.548956,12139.377449,-77375.645298
11502.555875,14508.036463,10510.924376,-75996.673402
11502.558443,21910.095883,-11251.130318,-75230.577904
11502.561011,-21317.931130,6365.771101,-75383.797003
11502.563579,-29756.278868,17764.942608,-75383.797003
11502.566149,-2220.617826,-2368.659014,-77528.864398
11502.568719,-31236.690752,1776.494261,-79367.493593
11502.571290,-32569.061448,9474.636058,-75383.797003
11502.573860,13915.871710,-740.205942,-76762.768900
11502.576430,43672.150578,-592.164754,-74770.920605
11502.579001,-31976.896694,5181.441594,-77069.207099
11502.581571,-44264.315332,2368.659014,-71859.757712
11502.584141,28127.825796,1776.494261,-67722.842023
11502.586712,23538.548956,-6513.812290,-76456.330700
11502.589282,-20133.601622,25167.002028,-79061.055394
11502.591852,7994.224174,2664.741391,-75996.673402
11502.594423,5773.606348,-7846.182985,-73698.386908
11502.596993,-40563.285622,13027.624579,-77528.864398
11502.599563,-42191.738694,15988.448347,-77682.083497
11502.602133,-24870.919651,9770.718434,-76915.987999
11502.604704,28868.031738,-6365.771101,-75383.797003
11502.607274,29756.278868,-6217.729913,-75537.016103
11502.609844,16136.489536,4737.318029,-75690.235202
11502.612415,12731.542202,16284.530724,-70940.443115
11502.614985,12879.583391,-2516.700203,-73851.606007
11502.617555,3997.112087,24870.919651,-76149.892501
11502.620126,2220.617826,-148.041188,-76915.987999
11502.622696,-9030.512492,-1924.535449,-77988.521696
11502.625266,14656.077652,31976.896694,-72166.195912
11502.627837,16728.654289,17468.860231,-74924.139704
11502.630407,-740.205942,4441.235652,-75383.797003
11502.632977,18357.107362,740.205942,-71246.881314
11502.635548,35677.926404,-2072.576638,-64964.898230
11502.638118,26055.249158,-5921.647536,-73698.386908
11502.640688,-1924.535449,26203.290347,-79673.931792
11502.643258,5181.441594,13915.871710,-78601.398095
11502.645829,15692.365970,-10807.006753,-74004.825107
11502.648399,296.082377,9178.553681,-72472.634111
11502.650969,-13619.789333,23538.548956,-74617.701505
11502.653540,148.041188,-11991.336260,-77988.521696
11502.656110,30496.484810,9178.553681,-75843.454302
11502.658680,25315.043216,12287.418637,-74770.920605
11502.661251,-26499.372724,-4589.276840,-73698.386908
11502.663821,-32124.937883,-18653.189738,-75996.673402
11502.666391,-27831.743419,24130.713709,-73545.167808
11502.668964,-8586.388927,6809.894666,-77528.864398
11502.671536,18653.189738,-5477.523971,-77375.645298
11502.674108,-3108.864956,-2812.782580,-75537.016103
11502.676681,-26351.331535,13619.789333,-73545.167808
11502.679253,-1332.370696,16136.489536,-71706.538613
11502.681825,4589.276840,-11991.336260,-79673.931792
11502.684398,-4737.318029,5329.482782,-80286.808190
11502.686970,-35233.802839,8438.347739,-77222.426198
11502.689543,-35677.926404,8734.430116,-78294.959896
11502.692115,16432.571912,1776.494261,-75690.235202
11502.694687,16728.654289,740.205942,-72472.634111
11502.697260,9474.636058,8438.347739,-71706.538613
11502.699832,-39823.079680,12435.459826,-75537.016103
11502.702404,-36122.049970,1332.370696,-78448.178995
11502.704977,-1628.453072,14952.160028,-75537.016103
11502.707549,22946.384202,-2812.782580,-77835.302597
11502.710121,15544.324782,-5477.523971,-74004.825107
11502.712694,-13619.789333,2368.659014,-73391.948708
11502.715266,-25907.207970,10955.047942,-74004.825107
11502.717839,-11695.253884,9178.553681,-77069.207099
11502.720411,20133.601622,-9770.718434,-77222.426198
11502.722983,38786.791361,1480.411884,-74924.139704
11502.725556,29756.278868,9326.594869,-73238.729609
11502.728128,17468.860231,9622.677246,-72472.634111
11502.730700,6513.812290,-6365.771101,-75077.358804
11502.733273,17764.942608,24278.754898,-74158.044206
11502.735845,11843.295072,1776.494261,-77375.645298
11502.738417,-17616.901420,148.041188,-78448.178995
11502.740990,-35825.967593,10955.047942,-80286.808190
11502.743562,-53590.910201,-3552.988522,-79827.150892
11502.746134,-32569.061448,11251.130318,-78754.617194
11502.748707,-5921.647536,3108.864956,-78601.398095
11502.751279,-25907.207970,6069.688724,-79673.931792
11502.753852,-3108.864956,13915.871710,-75996.673402
11502.756424,18801.230927,-2072.576638,-76456.330700
11502.758996,6513.812290,7698.141797,-77835.302597
11502.761569,31236.690752,9918.759623,-73545.167808
11502.764141,17024.736666,-2516.700203,-72319.415011
11502.766713,9474.636058,3552.988522,-73698.386908
11502.769286,-1184.329507,16284.530724,-75077.358804
11502.771859,-12435.459826,-17616.901420,-79980.369991
11502.774432,2960.823768,14063.912898,-76149.892501
11502.777004,-2960.823768,15100.201217,-73238.729609
11502.779577,-14804.118840,-7550.100608,-73238.729609
11502.782150,-14656.077652,18505.148550,-74924.139704
11502.784723,-14952.160028,8142.265362,-77835.302597
11502.787296,13471.748144,888.247130,-77375.645298
11502.789869,6217.729913,-5329.482782,-76762.768900
11502.792442,-2072.576638,-296.082377,-74464.482406
11502.795015,-27387.619854,19837.519246,-74924.139704
11502.797588,-17320.819043,-2220.617826,-77375.645298
11502.800161,-12435.459826,2960.823768,-77222.426198
11502.802734,-34789.679274,15988.448347,-79827.150892
11502.805307,-10214.842000,7550.100608,-76456.330700
11502.807879,14211.954086,-4441.235652,-75690.235202
11502.810452,-4737.318029,2368.659014,-76609.549800
11502.813025,-30644.525999,6957.935855,-73238.729609
11502.815598,-19689.478057,4441.235652,-73851.606007
11502.818171,7994.224174,7698.141797,-77528.864398
11502.820744,-10066.800811,-7105.977043,-80593.246390
11502.823317,-32717.102636,11547.212695,-78448.178995
11502.825890,-51074.209998,22798.343014,-74311.263306
11502.828463,-3108.864956,1036.288319,-72472.634111
11502.831036,23538.548956,2516.700203,-75383.797003
11502.833609,13323.706956,1628.453072,-79673.931792
11502.836182,4145.153275,23094.425390,-75383.797003
11502.838754,8586.388927,-592.164754,-75230.577904
11502.841327,-3108.864956,-5329.482782,-75996.673402
11502.843900,-4885.359217,13915.871710,-75996.673402
11502.846473,1332.370696,-3108.864956,-76303.111601
11502.849046,-18357.107362,2072.576638,-77375.645298
11502.851619,3552.988522,15840.407159,-76456.330700
11502.854192,22058.137072,17468.860231,-74004.825107
11502.856765,62029.257940,-8882.471304,-70787.224015
11502.859338,10955.047942,888.247130,-75383.797003
11502.861911,-8290.306550,3256.906145,-75996.673402
11502.864484,22058.137072,18949.272115,-68642.156621
11502.867057,18653.189738,14804.118840,-73698.386908
11502.869629,-8438.347739,11547.212695,-76303.111601
11502.872202,5033.400406,21021.848753,-77222.426198
11502.874776,38786.791361,-9622.677246,-75690.235202
11502.877349,18357.107362,-1924.535449,-72625.853210
11502.879923,-12879.583391,16284.530724,-74311.263306
11502.882496,-9178.553681,-2072.576638,-76303.111601
11502.885069,25611.125593,-444.123565,-75996.673402
11502.887643,9178.553681,9030.512492,-76456.330700
11502.890216,-11103.089130,12287.418637,-75383.797003
11502.892789,-24574.837274,-3256.906145,-74158.044206
11502.895363,-16580.613101,23094.425390,-73238.729609
11502.897936,-11695.253884,4589.276840,-77528.864398
11502.900510,17024.736666,-2812.782580,-77528.864398
11502.903083,1776.494261,-2072.576638,-75383.797003
11502.905656,-27831.743419,12731.542202,-74004.825107
11502.908230,-17172.777854,16432.571912,-75383.797003
11502.910803,25611.125593,-1628.453072,-72166.195912
11502.913376,53590.910201,148.041188,-70634.004916
11502.915950,29756.278868,3701.029710,-75843.454302
11502.918523,38342.667796,592.164754,-72625.853210
11502.921097,20281.642811,2072.576638,-71859.757712
11502.923670,-32717.102636,-7254.018232,-72319.415011
11502.926243,-14211.954086,9326.594869,-70480.785816
11502.928817,12287.418637,11547.212695,-71859.757712
11502.931390,8882.471304,21021.848753,-75383.797003
11502.933963,12731.542202,4885.359217,-77528.864398
11502.936537,-27683.702231,6661.853478,-79061.055394
11502.939110,-47077.097911,14063.912898,-76915.987999
11502.941683,-21614.013506,5921.647536,-74311.263306
11502.944257,23242.466579,8586.388927,-72319.415011
11502.946830,43376.068201,-4737.318029,-76762.768900
11502.949404,10510.924376,15692.365970,-77835.302597
11502.951977,19245.354492,7698.141797,-74770.920605
11502.954550,-7698.141797,4885.359217,-73698.386908
11502.957124,888.247130,-1184.329507,-74617.701505
11502.959697,3256.906145,4145.153275,-76149.892501
11502.962270,-30496.484810,-6365.771101,-80133.589091
11502.964844,-10362.883188,15988.448347,-75077.358804
11502.967417,-7402.059420,6513.812290,-79520.712692
11502.969991,-32569.061448,740.205942,-75537.016103
11502.972564,1332.370696,5625.565159,-75996.673402
11502.975137,50778.127621,-11103.089130,-73238.729609
11502.977711,24870.919651,14063.912898,-72625.853210
11502.980285,-21910.095883,5921.647536,-76303.111601
11502.982858,-20873.807564,-11547.212695,-80286.808190
11502.985432,-1480.411884,-5625.565159,-77682.083497
11502.988006,9918.759623,14211.954086,-75383.797003
11502.990579,740.205942,10807.006753,-74158.044206
11502.993153,17320.819043,-592.164754,-72166.195912
11502.995727,26647.413912,15840.407159,-74464.482406
11502.998301,-13323.706956,-14359.995275,-80746.465489
11503.000874,-43968.232955,1480.411884,-78448.178995
11503.003448,-740.205942,16876.695478,-71400.100414
11503.006022,6661.853478,9474.636058,-72472.634111
11503.008595,-21317.931130,5625.565159,-77988.521696
11503.011169,-35233.802839,9770.718434,-78601.398095
11503.013743,9770.718434,16728.654289,-76762.768900
11503.016316,13619.789333,-3849.070898,-73698.386908
11503.018890,14952.160028,-1480.411884,-74464.482406
11503.021464,1628.453072,11251.130318,-70634.004916
11503.024038,-4441.235652,7105.977043,-71859.757712
11503.026611,24130.713709,-2220.617826,-75843.454302
11503.029185,13619.789333,740.205942,-79367.493593
11503.031759,6661.853478,8882.471304,-77682.083497
11503.034332,-1036.288319,9918.759623,-69867.909418
11503.036906,-13323.706956,3256.906145,-69408.252119
11503.039480,4737.318029,296.082377,-72012.976812
11503.042053,7254.018232,-2960.823768,-77222.426198
11503.044627,-43820.191766,-1332.370696,-76149.892501
11503.047201,-50778.127621,6217.729913,-79061.055394
11503.049775,-45004.521274,15248.242405,-76609.549800
11503.052348,9326.594869,-6661.853478,-74770.920605
11503.054922,10658.965565,8290.306550,-74464.482406
11503.057496,-3701.029710,8142.265362,-77988.521696
11503.060069,4145.153275,20133.601622,-75843.454302
11503.062643,11399.171507,-3701.029710,-77835.302597
11503.065217,1184.329507,-592.164754,-76915.987999
11503.067790,1776.494261,23242.466579,-72166.195912
11503.070364,1480.411884,-3108.864956,-75230.577904
11503.072938,15100.201217,13323.706956,-73085.510509
11503.075512,22354.219448,888.247130,-75996.673402
11503.078085,-9918.759623,4145.153275,-71093.662214
11503.080623,60548.846056,-10658.965565,-70940.443115
11503.083161,13915.871710,3256.906145,-74311.263306
11503.085698,592.164754,3849.070898,-71246.881314
11503.088236,5181.441594,6365.771101,-71553.319513
11503.090774,18949.272115,11547.212695,-74464.482406
11503.093311,-2516.700203,-6957.935855,-80899.684589
11503.095849,-31976.896694,9474.636058,-81818.999186
11503.098387,10807.006753,14063.912898,-73085.510509
11503.100925,42191.738694,7254.018232,-69408.252119
11503.103462,18357.107362,-6661.853478,-74311.263306
11503.106000,-12139.377449,18949.272115,-76915.987999
11503.108538,-10510.924376,-2812.782580,-79980.369991
11503.111075,-22502.260637,0.000000,-75230.577904
11503.113613,-4885.359217,11251.130318,-72166.195912
11503.116151,-17172.777854,13175.665768,-75690.235202
11503.118688,-14656.077652,4293.194464,-76609.549800
11503.121226,-18209.066173,5329.482782,-77375.645298
11503.123764,888.247130,16432.571912,-76303.111601
11503.126301,21169.889941,-11399.171507,-75690.235202
11503.128839,-3256.906145,-1332.370696,-74158.044206
11503.131377,-27535.661042,12139.377449,-75996.673402
11503.133915,-15988.448347,6513.812290,-78448.178995
11503.136452,-41895.656317,296.082377,-80899.684589
11503.138990,-54035.033766,6365.771101,-78601.398095
11503.141528,-57884.104664,7846.182985,-83351.190182
11503.144065,-8586.388927,13027.624579,-74924.139704
11503.146603,17172.777854,3849.070898,-70787.224015
11503.149141,-15544.324782,-7698.141797,-73085.510509
11503.151678,-11991.336260,27091.537477,-73698.386908
11503.154216,18505.148550,8142.265362,-75843.454302
11503.156754,-29756.278868,4589.276840,-80899.684589
11503.159292,-52554.621882,18357.107362,-78754.617194
11503.161829,-3256.906145,5033.400406,-71553.319513
11503.164367,40267.203245,-1332.370696,-70634.004916
11503.166905,5625.565159,-4145.153275,-79980.369991
11503.169442,-24278.754898,31088.649564,-79061.055394
11503.171980,-4885.359217,22798.343014,-75230.577904
11503.174518,3108.864956,-6661.853478,-73238.729609
11503.177055,-3256.906145,-2812.782580,-75996.673402
11503.179593,-7550.100608,6809.894666,-76303.111601
11503.182138,-19541.436869,1776.494261,-77528.864398
11503.184683,2516.700203,9326.594869,-79827.150892
11503.187228,14359.995275,4885.359217,-79520.712692
11503.189773,-46040.809592,-5773.606348,-82431.875585
11503.192319,-42339.779882,18801.230927,-71553.319513
11503.194864,21465.972318,-10214.842000,-73391.948708
11503.197409,33605.349767,15544.324782,-74311.263306
11503.199954,-7846.182985,17912.983796,-77222.426198
11503.202499,-24426.796086,13619.789333,-82431.875585
11503.205044,5329.482782,-10510.924376,-77375.645298
11503.207589,38934.832549,-5477.523971,-73085.510509
11503.210134,2072.576638,8734.430116,-74311.263306
11503.212679,-17320.819043,10362.883188,-73238.729609
11503.215225,25759.166782,6069.688724,-73851.606007
11503.217770,36862.255912,9030.512492,-76303.111601
11503.220315,-18061.024985,-888.247130,-77682.083497
11503.222860,-37306.379477,296.082377,-74617.701505
11503.225405,-12139.377449,14359.995275,-70021.128517
11503.227950,2664.741391,-7994.224174,-77222.426198
11503.230495,-8290.306550,-8142.265362,-80286.808190
11503.233040,-31384.731941,12139.377449,-76915.987999
11503.235585,-17616.901420,17024.736666,-72319.415011
11503.238130,-1480.411884,5329.482782,-74311.263306
11503.240676,35974.008781,-5329.482782,-72472.634111
11503.243221,13175.665768,4441.235652,-75230.577904
11503.245766,-28868.031738,3552.988522,-78601.398095
11503.248311,-43820.191766,11843.295072,-81359.341888
11503.250856,-20577.725188,7846.182985,-80286.808190
11503.253401,740.205942,11843.295072,-73238.729609
11503.255946,-8142.265362,17764.942608,-69867.909418
11503.258491,-14508.036463,-2368.659014,-74311.263306
11503.261036,-36862.255912,-8882.471304,-80899.684589
11503.263582,-26795.455100,10214.842000,-79061.055394
11503.266127,-30200.402434,17320.819043,-76762.768900
11503.268672,6957.935855,-7105.977043,-74924.139704
11503.271217,12583.501014,4885.359217,-73545.167808
11503.273762,1776.494261,4737.318029,-76303.111601
11503.276307,-5181.441594,18801.230927,-76609.549800
11503.278852,3701.029710,592.164754,-78141.740796
11503.281397,6809.894666,-888.247130,-77375.645298
11503.283913,10362.883188,20429.683999,-72779.072310
11503.286429,2368.659014,-1036.288319,-73238.729609
11503.288945,21465.972318,15100.201217,-72625.853210
11503.291460,20281.642811,-2960.823768,-79214.274493
11503.293976,16136.489536,1332.370696,-74004.825107
11503.296492,25315.043216,3552.988522,-72319.415011
11503.299008,16728.654289,296.082377,-71246.881314
11503.301524,21021.848753,8882.471304,-68642.156621
11503.304039,-5033.400406,-2220.617826,-75537.016103
11503.306555,8290.306550,-8586.388927,-76609.549800
11503.309071,10658.965565,8142.265362,-81512.560987
11503.311587,6661.853478,1480.411884,-82431.875585
11503.314102,15840.407159,-4737.318029,-73085.510509
11503.316618,7698.141797,11399.171507,-70174.347617
11503.319134,3997.112087,3404.947333,-72625.853210
11503.321650,17172.777854,4737.318029,-75690.235202
11503.324166,19393.395680,12287.418637,-78448.178995
11503.326681,-22354.219448,888.247130,-75230.577904
11503.329197,-43672.150578,-1480.411884,-76149.892501
11503.331713,-25315.043216,19689.478057,-71553.319513
11503.334229,3849.070898,-5921.647536,-74924.139704
11503.336744,3256.906145,-12139.377449,-79520.712692
11503.339260,-26055.249158,12435.459826,-78448.178995
11503.341776,-4737.318029,12139.377449,-74158.044206
11503.344292,17616.901420,9178.553681,-68948.594820
11503.346808,-21614.013506,-3552.988522,-76149.892501
11503.349323,-60844.928432,14211.954086,-80286.808190
11503.351839,-148.041188,4441.235652,-77222.426198
11503.354355,54331.116143,-1924.535449,-76456.330700
11503.356871,40119.162056,148.041188,-74617.701505
11503.359386,-37010.297100,-7254.018232,-73391.948708
11503.361902,-57143.898722,1036.288319,-71859.757712
11503.364418,-3108.864956,24870.919651,-69714.690318
11503.366934,47817.303853,-592.164754,-75690.235202
11503.369450,-22502.260637,-1332.370696,-83657.628382
11503.371965,-54183.074954,16580.613101,-77528.864398
11503.374481,-444.123565,-740.205942,-71553.319513
11503.376997,26203.290347,1480.411884,-71553.319513
11503.379513,-6365.771101,6957.935855,-78294.959896
11503.382028,-8438.347739,27683.702231,-75690.235202
11503.384557,26055.249158,0.000000,-76149.892501
11503.387085,13027.624579,-9326.594869,-78601.398095
11503.389614,-9326.594869,17468.860231,-75537.016103
11503.392142,-12287.418637,6957.935855,-73698.386908
11503.394670,-8586.388927,10066.800811,-72932.291410
11503.397199,19245.354492,888.247130,-77069.207099
11503.399727,51814.415940,1776.494261,-75077.358804
11503.402255,67210.699534,-1628.453072,-71400.100414
11503.404784,11695.253884,6365.771101,-70787.224015
11503.407312,15544.324782,740.205942,-69255.033019
11503.409840,14063.912898,444.123565,-73238.729609
11503.412369,13175.665768,1776.494261,-76456.330700
11503.414897,-14063.912898,-1776.494261,-78601.398095
11503.417426,7254.018232,7846.182985,-77528.864398
11503.419954,32421.020260,8142.265362,-74311.263306
11503.422482,18949.272115,-2960.823768,-72319.415011
11503.425011,10658.965565,15248.242405,-73851.606007
11503.427539,-13915.871710,-5477.523971,-78601.398095
11503.430067,-17764.942608,-1776.494261,-79520.712692
11503.432596,-3256.906145,13471.748144,-74311.263306
11503.435124,-19985.560434,5181.441594,-72472.634111
11503.437653,-22502.260637,11103.089130,-75537.016103
11503.440181,-16284.530724,11843.295072,-75843.454302
11503.442709,14952.160028,888.247130,-76303.111601
11503.445238,16728.654289,-7402.059420,-75690.235202
11503.447766,-18209.066173,15544.324782,-75690.235202
11503.450294,-21021.848753,14211.954086,-74311.263306
11503.452823,-26203.290347,-3997.112087,-77222.426198
11503.455351,-12879.583391,12287.418637,-75843.454302
11503.457879,-10510.924376,1924.535449,-77222.426198
11503.460408,2072.576638,1036.288319,-79673.931792
11503.462936,-5773.606348,740.205942,-78754.617194
11503.465465,-28868.031738,888.247130,-73085.510509
11503.467993,-18801.230927,-3404.947333,-72319.415011
11503.470521,-27979.784608,-148.041188,-77222.426198
11503.473050,-20133.601622,10362.883188,-77528.864398
11503.475578,10214.842000,7994.224174,-77222.426198
11503.478106,23834.631332,-6069.688724,-75383.797003
11503.480635,-15396.283594,10362.883188,-73698.386908
11503.483163,-18357.107362,9770.718434,-73851.606007
11503.485702,-9918.759623,21021.848753,-76303.111601
11503.488240,14063.912898,-5033.400406,-77988.521696
11503.490778,18209.066173,-740.205942,-78141.740796
11503.493317,9770.718434,22206.178260,-73391.948708
11503.495855,2960.823768,-2960.823768,-73085.510509
11503.498394,19393.395680,1628.453072,-73085.510509
11503.500932,3701.029710,-5921.647536,-77069.207099
11503.503471,-30644.525999,11399.171507,-79061.055394
11503.506009,-13619.789333,9474.636058,-76915.987999
11503.508547,35825.967593,-9622.677246,-72012.976812
11503.511086,63065.546258,8586.388927,-64811.679131
11503.513624,43968.232955,-6365.771101,-69867.909418
11503.516163,16284.530724,-22650.301825,-74311.263306
11503.518701,-9770.718434,-6513.812290,-78754.617194
11503.521240,-9178.553681,9326.594869,-79980.369991
11503.523778,6069.688724,11547.212695,-74924.139704
11503.526317,14508.036463,-8438.347739,-72932.291410
11503.528855,1776.494261,14656.077652,-71093.662214
11503.531393,-5033.400406,-6217.729913,-76149.892501
11503.533932,13471.748144,7402.059420,-77069.207099
11503.536470,8290.306550,6513.812290,-76609.549800
11503.539009,-27979.784608,-592.164754,-75230.577904
11503.541547,-35381.844028,22798.343014,-73085.510509
11503.544086,-13323.706956,2516.700203,-75077.358804
11503.546624,6809.894666,-11251.130318,-77988.521696
11503.549162,-296.082377,-9326.594869,-76149.892501
11503.551701,-17320.819043,9622.677246,-77375.645298
11503.554239,888.247130,16580.613101,-69561.471218
11503.556778,6217.729913,-5181.441594,-73545.167808
11503.559316,29904.320057,-6365.771101,-75077.358804
11503.561855,-7994.224174,2516.700203,-79367.493593
11503.564393,-35825.967593,5477.523971,-83657.628382
11503.566905,-13175.665768,6365.771101,-74924.139704
11503.569417,3256.906145,5773.606348,-71553.319513
11503.571929,5625.565159,5329.482782,-70787.224015
11503.574441,-28275.866984,-7550.100608,-73391.948708
11503.576953,-39675.038491,8734.430116,-77988.521696
11503.579466,8290.306550,14063.912898,-78294.959896
11503.581978,25167.002028,2664.741391,-77375.645298
11503.584490,8734.430116,6661.853478,-72625.853210
11503.587002,-2664.741391,7846.182985,-73545.167808
11503.589514,148.041188,18949.272115,-74617.701505
11503.592026,16284.530724,-6513.812290,-78754.617194
11503.594538,7994.224174,-444.123565,-78907.836294
11503.597050,3701.029710,25167.002028,-73545.167808
11503.599562,4885.359217,148.041188,-72932.291410
11503.602074,19097.313304,-3849.070898,-72472.634111
11503.604586,-2812.782580,-7994.224174,-79827.150892
11503.607098,15988.448347,10510.924376,-73851.606007
11503.609611,63361.628635,2516.700203,-70480.785816
11503.612123,70763.688055,-1628.453072,-66343.870127
11503.614635,83051.106692,6809.894666,-64505.240932
11503.617147,45596.686027,2664.741391,-65884.212828
11503.619659,6513.812290,-6365.771101,-71093.662214
11503.622171,23390.507767,-13915.871710,-78141.740796
11503.624683,23390.507767,5181.441594,-79061.055394
11503.627195,-5773.606348,10510.924376,-75843.454302
11503.629707,888.247130,6217.729913,-71093.662214
11503.632219,23538.548956,3404.947333,-72932.291410
11503.634731,-7254.018232,-13767.830521,-80899.684589
11503.637243,-39971.120868,10807.006753,-78907.836294
11503.639755,6957.935855,18209.066173,-71553.319513
11503.642268,8142.265362,-444.123565,-74158.044206
11503.644780,-30644.525999,-11251.130318,-75537.016103
11503.647292,-23834.631332,10362.883188,-77069.207099
11503.649804,-13323.706956,21910.095883,-75537.016103
11503.652316,6513.812290,-7402.059420,-77069.207099
11503.654828,-4737.318029,-1924.535449,-75843.454302
11503.657340,-6217.729913,12435.459826,-72012.976812
11503.659852,58476.269418,9030.512492,-66497.089226
11503.662364,30496.484810,-8586.388927,-76149.892501
11503.664876,-56107.610404,3108.864956,-82125.437386
11503.667402,-23686.590144,2812.782580,-79367.493593
11503.669928,37602.461854,11843.295072,-71553.319513
11503.672455,-9770.718434,14508.036463,-72166.195912
11503.674981,-45448.644839,7105.977043,-76762.768900
11503.677507,-48261.427418,13619.789333,-78141.740796
11503.680033,22502.260637,8142.265362,-74311.263306
11503.682559,20429.683999,-10510.924376,-78294.959896
11503.685085,-31532.773129,6217.729913,-78448.178995
11503.687611,1628.453072,16728.654289,-70787.224015
11503.690137,45596.686027,-19985.560434,-70634.004916
11503.692664,13619.789333,-5329.482782,-77988.521696
11503.695190,-3552.988522,17912.983796,-78754.617194
11503.697716,8586.388927,8586.388927,-74770.920605
11503.700242,15840.407159,-6957.935855,-73698.386908
11503.702768,-10510.924376,3404.947333,-75690.235202
11503.705294,-5181.441594,10214.842000,-75537.016103
11503.707820,-23834.631332,-3552.988522,-83197.971083
11503.710346,-11843.295072,11399.171507,-77988.521696
11503.712873,5181.441594,2960.823768,-75230.577904
11503.715399,40415.244433,2072.576638,-69101.813920
11503.717925,37898.544230,2812.782580,-66956.746525
11503.720451,21910.095883,4885.359217,-71553.319513
11503.722977,5329.482782,-16876.695478,-80899.684589
11503.725503,4589.276840,3404.947333,-81206.122788
11503.728029,5181.441594,14508.036463,-76456.330700
11503.730555,10807.006753,-7550.100608,-73238.729609
11503.733082,13175.665768,15988.448347,-70327.566716
11503.735608,-3997.112087,-8290.306550,-75996.673402
11503.738134,-25315.043216,5477.523971,-77069.207099
11503.740660,13175.665768,7846.182985,-74004.825107
11503.743186,2220.617826,5329.482782,-74924.139704
11503.745712,-33457.308578,9918.759623,-77835.302597
11503.748238,-45892.768404,16728.654289,-77222.426198
11503.750764,6957.935855,2368.659014,-73851.606007
11503.753291,11251.130318,-8290.306550,-75230.577904
11503.755817,-9918.759623,13471.748144,-74311.263306
11503.758343,-18061.024985,9622.677246,-77682.083497
11503.760869,-18653.189738,1184.329507,-76915.987999
11503.763395,-21169.889941,14211.954086,-76303.111601
11503.765921,-29312.155303,2516.700203,-80440.027290
11503.768459,-2516.700203,10807.006753,-78448.178995
11503.770996,-11695.253884,10955.047942,-75077.358804
11503.773533,-21169.889941,-5625.565159,-72932.291410
11503.776070,-41451.532752,2072.576638,-75383.797003
11503.778607,-9178.553681,4885.359217,-76303.111601
11503.781144,23242.466579,7254.018232,-75690.235202
11503.783682,-5329.482782,2960.823768,-79520.712692
11503.786219,-32569.061448,6069.688724,-76149.892501
11503.788756,-2072.576638,6217.729913,-71553.319513
11503.791293,29756.278868,-10955.047942,-73545.167808
11503.793830,23094.425390,1184.329507,-75843.454302
11503.796368,18061.024985,12139.377449,-76303.111601
11503.798905,10955.047942,-296.082377,-75996.673402
11503.801442,14508.036463,-2664.741391,-73085.510509
11503.803979,-3849.070898,0.000000,-74770.920605
11503.806516,-2072.576638,10362.883188,-75230.577904
11503.809054,23686.590144,5181.441594,-71093.662214
11503.811591,41747.615129,-5921.647536,-74617.701505
11503.814128,28571.949361,1184.329507,-75996.673402
11503.816665,-38638.750172,18209.066173,-77069.207099
11503.819202,-58180.187041,-3849.070898,-76762.768900
11503.821739,-13915.871710,15100.201217,-77528.864398
11503.824277,31828.855506,24130.713709,-80899.684589
11503.826814,-2960.823768,-3404.947333,-83504.409282
11503.829351,-6217.729913,4293.194464,-74004.825107
11503.831888,-18357.107362,9178.553681,-72625.853210
11503.834425,24870.919651,10807.006753,-71246.881314
11503.836963,3997.112087,-8586.388927,-78448.178995
11503.839500,-38934.832549,7402.059420,-77682.083497
11503.842037,4293.194464,14804.118840,-72472.634111
11503.844574,7846.182985,3256.906145,-75077.358804
11503.847111,-27683.702231,-1036.288319,-78907.836294
11503.849649,-49297.715737,27831.743419,-76149.892501
11503.852186,10214.842000,16284.530724,-71553.319513
11503.854723,9326.594869,-13619.789333,-77375.645298
11503.857260,-16876.695478,11251.130318,-75690.235202
11503.859797,-38046.585419,13175.665768,-75843.454302
11503.862334,-36566.173535,6365.771101,-76762.768900
11503.864872,-60400.804867,10955.047942,-79061.055394
11503.867409,-40119.162056,-3997.112087,-84883.381178
11503.869955,-10510.924376,6069.688724,-82278.656485
11503.872501,-8142.265362,3997.112087,-77835.302597
11503.875047,-14359.995275,11991.336260,-70480.785816
11503.877593,-10214.842000,6809.894666,-70021.128517
11503.880139,-23390.507767,8142.265362,-75690.235202
11503.882685,-11547.212695,3701.029710,-78601.398095
11503.885232,6957.935855,296.082377,-78907.836294
11503.887778,-3108.864956,9326.594869,-76609.549800
11503.890324,-1036.288319,7550.100608,-72012.976812
11503.892870,-1776.494261,4737.318029,-74004.825107
11503.895416,5033.400406,-1036.288319,-76915.987999
11503.897962,16432.571912,-444.123565,-77682.083497
11503.900508,12731.542202,20133.601622,-75690.235202
11503.903054,1332.370696,1924.535449,-74311.263306
11503.905600,4441.235652,1924.535449,-73545.167808
11503.908147,2664.741391,14063.912898,-72625.853210
11503.910693,3701.029710,-740.205942,-76303.111601
11503.913239,65878.328838,9030.512492,-70021.128517
11503.915785,-740.205942,5921.647536,-77988.521696
11503.918331,-27831.743419,8142.265362,-75383.797003
11503.920877,6809.894666,-2664.741391,-69561.471218
11503.923423,27683.702231,148.041188,-77682.083497
11503.925969,2072.576638,8882.471304,-82125.437386
11503.928515,-7254.018232,3849.070898,-79520.712692
11503.931061,11251.130318,6513.812290,-72779.072310
11503.933608,27831.743419,4293.194464,-69101.813920
11503.936154,-6661.853478,-16432.571912,-76303.111601
11503.938700,-9770.718434,21910.095883,-75537.016103
11503.941246,9030.512492,4589.276840,-76456.330700
11503.943792,-7846.182985,-13471.748144,-77375.645298
11503.946338,-40859.367998,23094.425390,-76303.111601
11503.948884,-28423.908173,3552.988522,-76149.892501
11503.951430,-740.205942,-17616.901420,-76303.111601
11503.953976,-7105.977043,9178.553681,-76915.987999
11503.956523,2072.576638,11991.336260,-72625.853210
11503.959069,24722.878463,9178.553681,-69867.909418
11503.961615,39378.956114,-7846.182985,-72779.072310
11503.964161,-10362.883188,3404.947333,-77988.521696
11503.966707,-62621.422693,2368.659014,-84270.504780
11503.969253,-22206.178260,17172.777854,-78141.740796
11503.971799,1628.453072,14952.160028,-74924.139704
11503.974345,-6069.688724,3997.112087,-74617.701505
11503.976891,-39675.038491,740.205942,-74770.920605
11503.979438,-28571.949361,1480.411884,-73391.948708
11503.981984,21169.889941,9474.636058,-75230.577904
11503.984530,16284.530724,-4885.359217,-79061.055394
11503.987076,-32865.143825,7698.141797,-78754.617194
11503.989622,-14656.077652,11843.295072,-72472.634111
11503.992176,-1628.453072,9474.636058,-72779.072310
11503.994730,24130.713709,-18801.230927,-75537.016103
11503.997284,18653.189738,1480.411884,-79673.931792
11503.999837,11843.295072,23094.425390,-74924.139704
11504.002391,17616.901420,-2960.823768,-73545.167808
11504.004945,2960.823768,-5181.441594,-74770.920605
11504.007499,-2960.823768,12879.583391,-79061.055394
11504.010053,6661.853478,9770.718434,-76915.987999
11504.012607,-28127.825796,-888.247130,-77528.864398
11504.015161,-31680.814318,18061.024985,-77682.083497
11504.017715,-34345.555709,17024.736666,-80593.246390
11504.020269,-19985.560434,12731.542202,-76456.330700
11504.022822,14359.995275,13619.789333,-74311.263306
11504.025376,20873.807564,2072.576638,-78294.959896
11504.027930,14656.077652,4589.276840,-77528.864398
11504.030484,15840.407159,1924.535449,-73851.606007
11504.033038,12139.377449,1036.288319,-71706.538613
11504.035592,3108.864956,-4885.359217,-74464.482406
11504.038146,14656.077652,19541.436869,-73698.386908
11504.040700,-2812.782580,4293.194464,-77222.426198
11504.043253,-32717.102636,-8438.347739,-78294.959896
11504.045807,-35381.844028,18505.148550,-74311.263306
11504.048361,-5329.482782,888.247130,-74770.920605
11504.050915,-3404.947333,-16876.695478,-77528.864398
11504.053469,5329.482782,-5477.523971,-75383.797003
11504.056023,-10066.800811,16580.613101,-73698.386908
11504.058577,-1036.288319,5773.606348,-75383.797003
11504.061131,-15100.201217,2812.782580,-78141.740796
11504.063685,-42635.862259,14952.160028,-79367.493593
11504.066238,4441.235652,11695.253884,-74617.701505
11504.068792,13915.871710,5625.565159,-77528.864398
11504.071346,-28571.949361,-2368.659014,-78601.398095
11504.073873,-23834.631332,-1776.494261,-72012.976812
11504.076399,3701.029710,-2664.741391,-71093.662214
11504.078926,-17616.901420,-592.164754,-75843.454302
11504.081452,-17468.860231,10955.047942,-78601.398095
11504.083979,1776.494261,6513.812290,-78754.617194
11504.086505,14952.160028,7402.059420,-71859.757712
11504.089032,1480.411884,-888.247130,-74617.701505
11504.091559,-21465.972318,22206.178260,-76609.549800
11504.094085,9326.594869,2812.782580,-76303.111601
11504.096612,33161.226202,-7550.100608,-77222.426198
11504.099138,20725.766376,13471.748144,-75230.577904
11504.101665,-296.082377,3552.988522,-75077.358804
11504.104191,-1776.494261,-3256.906145,-74158.044206
11504.106718,1628.453072,7105.977043,-77835.302597
11504.109244,-23094.425390,6365.771101,-81206.122788
11504.111771,-42783.903448,0.000000,-79673.931792
11504.114297,-2516.700203,-1184.329507,-72932.291410
11504.116824,-14359.995275,-4441.235652,-72779.072310
11504.119350,-444.123565,3849.070898,-78907.836294
11504.121877,6661.853478,17912.983796,-81359.341888
11504.124404,-9474.636058,2368.659014,-80746.465489
11504.126930,17912.983796,-888.247130,-76456.330700
11504.129457,28719.990550,3552.988522,-73851.606007
11504.131983,2368.659014,10214.842000,-75383.797003
11504.134510,-31680.814318,-6217.729913,-77069.207099
11504.137036,-24722.878463,2812.782580,-75690.235202
11504.139563,7698.141797,8438.347739,-76456.330700
11504.142089,-13915.871710,10658.965565,-76915.987999
11504.144616,-29904.320057,6661.853478,-77375.645298
11504.147142,-20429.683999,13027.624579,-76149.892501
11504.149669,19541.436869,15248.242405,-72319.415011
11504.152196,11695.253884,-11103.089130,-74311.263306
11504.154722,-27091.537477,-6217.729913,-79367.493593
11504.157249,-5625.565159,17024.736666,-75996.673402
11504.159775,-30348.443622,11547.212695,-78907.836294
11504.162302,-30792.567187,6957.935855,-79673.931792
11504.164828,-13175.665768,1332.370696,-77682.083497
11504.167355,-16728.654289,10658.965565,-78294.959896
11504.169881,-19097.313304,7698.141797,-74311.263306
11504.172408,-25759.166782,5921.647536,-70787.224015
11504.174946,740.205942,4293.194464,-74158.044206
11504.177484,3256.906145,5773.606348,-76609.549800
11504.180021,7994.224174,-1776.494261,-80133.589091
11504.182559,-24722.878463,6513.812290,-77988.521696
11504.185097,-592.164754,9030.512492,-72166.195912
11504.187635,25167.002028,-13915.871710,-71859.757712
11504.190173,19837.519246,-740.205942,-75537.016103
11504.192711,14211.954086,14656.077652,-75843.454302
11504.195249,9918.759623,5181.441594,-76762.768900
11504.197787,10955.047942,-6069.688724,-74924.139704
11504.200324,-10807.006753,6957.935855,-75077.358804
11504.202862,-3849.070898,4441.235652,-77988.521696
11504.205400,13323.706956,7105.977043,-77222.426198
11504.207938,-45300.603650,15100.201217,-84883.381178
11504.210476,-76389.253214,11843.295072,-80286.808190
11504.213014,-51666.374752,-13619.789333,-77682.083497
11504.215552,-1480.411884,-1332.370696,-69101.813920
11504.218090,37898.544230,21465.972318,-77375.645298
11504.220627,-2516.700203,11547.212695,-82891.532884
11504.223165,-22798.343014,-4293.194464,-79061.055394
11504.225703,31828.855506,6957.935855,-73238.729609
11504.228241,30940.608376,5625.565159,-70634.004916
11504.230779,-20281.642811,-9030.512492,-77375.645298
11504.233317,-11103.089130,19541.436869,-74311.263306
11504.235855,17764.942608,9474.636058,-74617.701505
11504.238393,-20725.766376,-5625.565159,-78601.398095
11504.240930,-50185.962868,16876.695478,-77988.521696
11504.243468,-52998.745447,15544.324782,-77988.521696
11504.246006,-3256.906145,-5181.441594,-75383.797003
11504.248544,5921.647536,-1628.453072,-75230.577904
11504.251082,-1332.370696,21465.972318,-68642.156621
11504.253620,-148.041188,6957.935855,-70327.566716
11504.256158,32272.979071,4737.318029,-74004.825107
11504.258696,9622.677246,1924.535449,-79827.150892
11504.261233,12287.418637,6957.935855,-73238.729609
11504.263771,3701.029710,-148.041188,-73391.948708
11504.266309,-19097.313304,4145.153275,-73391.948708
11504.268847,-50482.045244,15100.201217,-74311.263306
11504.271385,-9474.636058,14952.160028,-74158.044206
11504.273923,6217.729913,-444.123565,-74617.701505
11504.276470,-148.041188,-8438.347739,-79827.150892
11504.279018,-35233.802839,9178.553681,-78448.178995
11504.281566,-6809.894666,12435.459826,-73238.729609
11504.284113,40711.326810,-14508.036463,-70940.443115
11504.286661,29904.320057,2812.782580,-73851.606007
11504.289209,8882.471304,16284.530724,-77835.302597
11504.291757,10510.924376,-2072.576638,-76762.768900
11504.294304,10658.965565,-5477.523971,-74617.701505
11504.296852,-16876.695478,13323.706956,-74770.920605
11504.299400,-4589.276840,19985.560434,-73698.386908
11504.301947,1924.535449,7846.182985,-79827.150892
11504.304495,-10214.842000,8142.265362,-78754.617194
11504.307043,-9918.759623,9030.512492,-75690.235202
11504.309590,10362.883188,18653.189738,-69867.909418
11504.312138,-12435.459826,1036.288319,-75690.235202
11504.314686,1332.370696,1628.453072,-77835.302597
11504.317233,15100.201217,13619.789333,-78601.398095
11504.319781,23390.507767,1628.453072,-77835.302597
11504.322329,20429.683999,1628.453072,-73238.729609
11504.324876,-3997.112087,12583.501014,-73085.510509
11504.327424,-19689.478057,-10807.006753,-76456.330700
11504.329972,-2812.782580,5329.482782,-76915.987999
11504.332519,21614.013506,10510.924376,-75230.577904
11504.335067,-11251.130318,444.123565,-76915.987999
11504.337615,-28868.031738,4145.153275,-78754.617194
11504.340163,-40267.203245,17764.942608,-76456.330700
11504.342710,8438.347739,-1924.535449,-74770.920605
11504.345258,11991.336260,-7846.182985,-74311.263306
11504.347806,-2812.782580,21614.013506,-69255.033019
11504.350353,27831.743419,16284.530724,-66037.431928
11504.352901,47817.303853,-2368.659014,-74311.263306
11504.355449,-22650.301825,1480.411884,-81359.341888
11504.357996,-64990.081708,-3404.947333,-87181.667672
11504.360544,-19245.354492,10807.006753,-75537.016103
11504.363092,18209.066173,6957.935855,-70634.004916
11504.365639,-26795.455100,-6809.894666,-72625.853210
11504.368187,-42635.862259,7402.059420,-74158.044206
11504.370735,-28423.908173,14952.160028,-78448.178995
11504.373282,12435.459826,1332.370696,-77988.521696
11504.375830,-9178.553681,1184.329507,-78754.617194
11504.378386,-20873.807564,17024.736666,-75230.577904
11504.380941,7402.059420,6957.935855,-70174.347617
11504.383497,44116.274143,-19245.354492,-74004.825107
11504.386053,27535.661042,-1480.411884,-78907.836294
11504.388608,2072.576638,20281.642811,-77375.645298
11504.391164,9474.636058,888.247130,-73545.167808
11504.393719,-9178.553681,1036.288319,-73698.386908
11504.396275,-6957.935855,9918.759623,-78754.617194
11504.398831,-13915.871710,18949.272115,-81052.903688
11504.401386,-23982.672521,23834.631332,-77988.521696
11504.403942,-29756.278868,3404.947333,-74311.263306
11504.406498,-7846.182985,-740.205942,-71093.662214
11504.409053,4589.276840,8142.265362,-76609.549800
11504.411609,11399.171507,15544.324782,-79061.055394
11504.414164,5921.647536,5921.647536,-80899.684589
11504.416720,17912.983796,-148.041188,-77528.864398
11504.419276,11991.336260,-1332.370696,-73698.386908
11504.421831,16580.613101,11399.171507,-70174.347617
11504.424387,5625.565159,11399.171507,-73698.386908
11504.426943,-31976.896694,-148.041188,-77528.864398
11504.429498,-26943.496289,3404.947333,-77222.426198
11504.432054,-9770.718434,4441.235652,-77069.207099
11504.434609,5477.523971,-10658.965565,-75383.797003
11504.437165,-1332.370696,5625.565159,-75843.454302
11504.439721,3997.112087,25018.960840,-76303.111601
11504.442276,1184.329507,-11991.336260,-72625.853210
11504.444832,-22058.137072,-9770.718434,-72166.195912
11504.447388,-4145.153275,8290.306550,-73698.386908
11504.449943,17320.819043,5033.400406,-76303.111601
11504.452499,-14804.118840,3552.988522,-80593.246390
11504.455054,-13027.624579,-11103.089130,-80440.027290
11504.457610,6661.853478,-2516.700203,-72932.291410
11504.460166,-22354.219448,29312.155303,-69714.690318
11504.462721,-27535.661042,22946.384202,-72012.976812
11504.465277,-5477.523971,13915.871710,-76762.768900
11504.467832,-7550.100608,-1036.288319,-80593.246390
11504.470388,-21910.095883,1184.329507,-77835.302597
11504.472944,-5477.523971,10214.842000,-74617.701505
11504.475499,21465.972318,-8882.471304,-72625.853210
11504.478055,14656.077652,11843.295072,-73851.606007
11504.480617,1480.411884,16284.530724,-77222.426198
11504.483179,7402.059420,-6365.771101,-76915.987999
11504.485741,7254.018232,-1776.494261,-77069.207099
11504.488303,-13027.624579,13471.748144,-73698.386908
11504.490865,-7254.018232,-3849.070898,-78448.178995
11504.493427,26351.331535,-1184.329507,-77682.083497
11504.495989,-3552.988522,35677.926404,-80133.589091
11504.498551,-9918.759623,43820.191766,-78141.740796
11504.501113,-32865.143825,-592.164754,-75077.358804
11504.503675,1184.329507,-23982.672521,-68182.499322
11504.506237,45596.686027,29756.278868,-75383.797003
11504.508799,14211.954086,10214.842000,-82585.094684
11504.511361,-15692.365970,-3701.029710,-79520.712692
11504.513923,13175.665768,2812.782580,-73391.948708
11504.516486,34493.596897,10066.800811,-70940.443115
11504.519048,-15988.448347,-5329.482782,-77222.426198
11504.521610,-46484.933158,4145.153275,-76915.987999
11504.524172,9326.594869,17320.819043,-72625.853210
11504.526734,5181.441594,10510.924376,-77375.645298
11504.529296,148.041188,-6217.729913,-78294.959896
11504.531858,-25611.125593,17320.819043,-76456.330700
11504.534420,16876.695478,16432.571912,-72012.976812
11504.536982,13619.789333,-8882.471304,-73698.386908
11504.539544,3404.947333,7698.141797,-70940.443115
11504.542106,5033.400406,6513.812290,-71400.100414
11504.544668,-2368.659014,7254.018232,-76609.549800
11504.547230,-29164.114115,13175.665768,-84576.942979
11504.549792,-7402.059420,6809.894666,-78294.959896
11504.552354,-3552.988522,-1332.370696,-74311.263306
11504.554916,-20133.601622,19985.560434,-70174.347617
11504.557478,-13767.830521,16580.613101,-71706.538613
11504.560040,-25463.084405,9622.677246,-77528.864398
11504.562602,-6809.894666,-2220.617826,-80593.246390
11504.565164,-29164.114115,4589.276840,-78294.959896
11504.567726,-3256.906145,9326.594869,-73698.386908
11504.570288,36862.255912,-11547.212695,-73238.729609
11504.572850,20281.642811,11695.253884,-74158.044206
11504.575412,-2072.576638,10214.842000,-75537.016103
11504.577974,6957.935855,-7550.100608,-76915.987999
11504.580536,9622.677246,2516.700203,-78141.740796
11504.583103,-20873.807564,10510.924376,-75383.797003
11504.585669,-11399.171507,4589.276840,-75690.235202
11504.588236,-1332.370696,7550.100608,-83351.190182
11504.590802,-19985.560434,10362.883188,-82278.656485
11504.593369,5921.647536,1480.411884,-73238.729609
11504.595935,19985.560434,6957.935855,-65730.993728
11504.598502,-3256.906145,4293.194464,-73698.386908
11504.601068,-888.247130,296.082377,-79061.055394
11504.603635,13471.748144,9918.759623,-81972.218286
11504.606201,23094.425390,5477.523971,-77988.521696
11504.608768,2664.741391,1924.535449,-73698.386908
11504.611334,14952.160028,18949.272115,-69867.909418
11504.613901,7550.100608,3256.906145,-74004.825107
11504.616467,-26203.290347,-5033.400406,-76456.330700
11504.619033,-21614.013506,7846.182985,-76149.892501
11504.621600,-10362.883188,16136.489536,-77375.645298
11504.624166,7254.018232,-3108.864956,-76149.892501
11504.626733,-444.123565,12139.377449,-74158.044206
11504.629299,15544.324782,17912.983796,-73698.386908
11504.631866,-1628.453072,-14952.160028,-77528.864398
11504.634432,4293.194464,-1628.453072,-72779.072310
11504.636999,-2960.823768,16284.530724,-71859.757712
11504.639565,-19097.313304,7550.100608,-77528.864398
11504.642132,24870.919651,12435.459826,-72932.291410
11504.644698,18209.066173,-2812.782580,-79673.931792
11504.647265,-17320.819043,-4885.359217,-76609.549800
11504.649831,-49593.798114,296.082377,-68642.156621
11504.652398,-29164.114115,14508.036463,-71400.100414
11504.654964,15988.448347,5773.606348,-77222.426198
11504.657531,20281.642811,-4737.318029,-80440.027290
11504.660097,-17024.736666,3849.070898,-78294.959896
11504.662663,-12583.501014,16728.654289,-72012.976812
11504.665230,24130.713709,-3997.112087,-71553.319513
11504.667796,36714.214723,-15840.407159,-74770.920605
11504.670363,17024.736666,9178.553681,-77069.207099
11504.672929,-1184.329507,15692.365970,-77069.207099
11504.675496,10955.047942,-4145.153275,-73391.948708
11504.678062,-10955.047942,7254.018232,-73238.729609
11504.680629,-13323.706956,3552.988522,-82431.875585
11504.683195,10214.842000,17764.942608,-79367.493593
11504.685765,-21021.848753,13175.665768,-76303.111601
11504.688336,-24278.754898,10362.883188,-76303.111601
11504.690906,-18209.066173,3552.988522,-71400.100414
11504.693476,13619.789333,13471.748144,-74158.044206
11504.696046,28275.866984,13915.871710,-77835.302597
11504.698616,-3404.947333,-2368.659014,-81972.218286
11504.701186,9326.594869,14063.912898,-75230.577904
11504.703757,28868.031738,6661.853478,-69255.033019
11504.706327,2516.700203,-11399.171507,-74770.920605
11504.708897,-1776.494261,15988.448347,-75077.358804
11504.711467,7994.224174,8290.306550,-75690.235202
11504.714037,-17764.942608,-8438.347739,-77528.864398
11504.716607,-48261.427418,14063.912898,-76762.768900
11504.719177,-17320.819043,14656.077652,-79061.055394
11504.721748,-15544.324782,-21021.848753,-78754.617194
